sample_index,elapsed_s,dt_s,state_loop_tick,snapshot_age_ms,qpos_swing_rad,qpos_swing_deg,qpos_boom_rad,qpos_boom_deg,qpos_stick_rad,qpos_stick_deg,qpos_bucket_rad,qpos_bucket_deg,qvel_bridge_swing,qvel_bridge_boom,qvel_bridge_stick,qvel_bridge_bucket,qvel_qpos_diff_swing,qvel_qpos_diff_boom,qvel_qpos_diff_stick,qvel_qpos_diff_bucket,qvel_residual_bridge_minus_qpos_diff_swing,qvel_residual_bridge_minus_qpos_diff_boom,qvel_residual_bridge_minus_qpos_diff_stick,qvel_residual_bridge_minus_qpos_diff_bucket,qvel_raw_imu_rad_s_swing,qvel_raw_imu_rad_s_boom,qvel_raw_imu_rad_s_stick,qvel_raw_imu_rad_s_bucket,imu0_addr,imu0_online,imu0_gyro_valid,imu0_age_ms,imu0_loss,imu0_gyro_x_dps,imu0_gyro_y_dps,imu0_gyro_z_dps,imu0_rpy_x_rad,imu0_rpy_y_rad,imu0_rpy_z_rad,imu1_addr,imu1_online,imu1_gyro_valid,imu1_age_ms,imu1_loss,imu1_gyro_x_dps,imu1_gyro_y_dps,imu1_gyro_z_dps,imu1_rpy_x_rad,imu1_rpy_y_rad,imu1_rpy_z_rad,imu2_addr,imu2_online,imu2_gyro_valid,imu2_age_ms,imu2_loss,imu2_gyro_x_dps,imu2_gyro_y_dps,imu2_gyro_z_dps,imu2_rpy_x_rad,imu2_rpy_y_rad,imu2_rpy_z_rad,imu3_addr,imu3_online,imu3_gyro_valid,imu3_age_ms,imu3_loss,imu3_gyro_x_dps,imu3_gyro_y_dps,imu3_gyro_z_dps,imu3_rpy_x_rad,imu3_rpy_y_rad,imu3_rpy_z_rad
0,0.000378586,,533,4.196381,2.548529863357544,146.02000513343967,0.034208450466394424,1.9599998354067332,-0.034208450466394424,-1.9599998354067332,-1.5446163415908813,-88.49999734009499,-0.0013962634224014094,0.0,0.0,-0.0002617994307114132,,,,,,,,,0.0,0.0,0.0,0.0034906585560035243,1,1,1,5.147342,0,-0.20000000298023224,0.20000000298023224,-0.10000000149011612,-0.7681193947792053,-1.5446163415908813,1.0508626699447632,2,0,0,-1.0,0,0.0,0.0,0.0,0.0,0.0,0.0,3,0,0,10625.20435,0,0.0,0.0,0.0,0.008726646192371845,0.034208450466394424,2.545562505722046,4,1,1,5.143663,0,0.4000000059604645,-0.5,0.0,0.009948376566171646,0.0345575176179409,2.548529863357544
1,0.02044665,0.01422803,533,18.424411,2.548529863357544,146.02000513343967,0.034208450466394424,1.9599998354067332,-0.034208450466394424,-1.9599998354067332,-1.5446163415908813,-88.49999734009499,-0.0013962634224014094,0.0,0.0,-0.0002617994307114132,0.0,0.0,0.0,0.0,-0.0013962634224014094,0.0,0.0,-0.0002617994307114132,0.0,0.0,0.0,0.0034906585560035243,1,1,1,19.323692,0,-0.20000000298023224,0.20000000298023224,-0.10000000149011612,-0.7681193947792053,-1.5446163415908813,1.0508626699447632,2,0,0,-1.0,0,0.0,0.0,0.0,0.0,0.0,0.0,3,0,0,10639.3807,0,0.0,0.0,0.0,0.008726646192371845,0.034208450466394424,2.545562505722046,4,1,1,19.320013,0,0.4000000059604645,-0.5,0.0,0.009948376566171646,0.0345575176179409,2.548529863357544
2,0.071790025,0.05132859,536,9.862595,2.5532419681549072,146.28998885095191,0.034208450466394424,1.9599998354067332,-0.034208450466394424,-1.9599998354067332,-1.544267177581787,-88.47999171601602,0.0003490658556003527,0.0,0.0,-0.0002617994307114132,0.09180273211018034,0.0,0.0,0.006802524852021812,-0.09145366625457998,0.0,0.0,-0.007064324282733226,0.0017453292780017621,0.0,0.0,0.0034906585560035243,1,1,1,10.728245,0,-0.10000000149011612,0.20000000298023224,-0.20000000298023224,-0.7698647379875183,-1.544267177581787,1.0541788339614868,2,0,0,-1.0,0,0.0,0.0,0.0,0.0,0.0,0.0,3,0,0,10690.75857,0,0.0,0.0,0.0,0.008726646192371845,0.034208450466394424,2.545562505722046,4,1,1,10.725813,0,0.4000000059604645,-0.5,0.10000000149011612,0.01047197449952364,0.03490658476948738,2.5532419681549072
3,0.091871273,0.020183839,537,10.29206,2.5532419681549072,146.28998885095191,0.034208450466394424,1.9599998354067332,-0.034208450466394424,-1.9599998354067332,-1.5440927743911743,-88.46999914926029,0.0003490658556003527,0.0,0.0,-0.0002617994307114132,0.0,0.0,0.0,0.008640734332690277,0.0003490658556003527,0.0,0.0,-0.00890253376340169,0.0017453292780017621,0.0,0.0,0.0034906585560035243,1,1,1,10.905586,0,-0.10000000149011612,0.20000000298023224,-0.20000000298023224,-0.7737044095993042,-1.5440927743911743,1.0609855651855469,2,0,0,-1.0,0,0.0,0.0,0.0,0.0,0.0,0.0,3,0,0,10710.962536,0,0.0,0.0,0.0,0.008726646192371845,0.034208450466394424,2.545562505722046,4,1,1,10.901074,0,0.4000000059604645,-0.5,0.10000000149011612,0.010646509006619453,0.03490658476948738,2.5532419681549072
4,0.111951145,0.020127199,538,10.120318,2.5558602809906006,146.4400071258821,0.034208450466394424,1.9599998354067332,-0.034208450466394424,-1.9599998354067332,-1.543918251991272,-88.4599997523154,-0.0013962634224014094,0.0,0.0,-0.0002617994307114132,0.1300882867851289,0.0,0.0,0.008670973040130609,-0.1314845502075303,0.0,0.0,-0.008932772470842022,0.0,0.0,0.0,0.0034906585560035243,1,1,1,11.066927,0,-0.10000000149011612,0.20000000298023224,-0.30000001192092896,-0.7770205736160278,-1.543918251991272,1.0669196844100952,2,0,0,-1.0,0,0.0,0.0,0.0,0.0,0.0,0.0,3,0,0,10731.111687,0,0.0,0.0,0.0,0.008726646192371845,0.034208450466394424,2.545562505722046,4,1,1,11.0628,0,0.4000000059604645,-0.5,0.0,0.010995574295520782,0.03525565192103386,2.5558602809906006
5,0.132028649,0.020138848,539,9.957698,2.5558602809906006,146.4400071258821,0.034208450466394424,1.9599998354067332,-0.034208450466394424,-1.9599998354067332,-1.543918251991272,-88.4599997523154,-0.0013962634224014094,0.0,0.0,-0.0002617994307114132,0.0,0.0,0.0,0.0,-0.0013962634224014094,0.0,0.0,-0.0002617994307114132,0.0,0.0,0.0,0.0034906585560035243,1,1,1,31.227502,0,-0.10000000149011612,0.20000000298023224,-0.30000001192092896,-0.7770205736160278,-1.543918251991272,1.0669196844100952,2,0,0,-1.0,0,0.0,0.0,0.0,0.0,0.0,0.0,3,0,0,10751.272262,0,0.0,0.0,0.0,0.008726646192371845,0.034208450466394424,2.545562505722046,4,1,1,31.223375,0,0.4000000059604645,-0.5,0.0,0.010995574295520782,0.03525565192103386,2.5558602809906006
6,0.152121386,0.0201128,540,10.823348,2.5527184009552,146.25999066011724,0.034208450466394424,1.9599998354067332,-0.034208450466394424,-1.9599998354067332,-1.5440927743911743,-88.46999914926029,-0.0013962634224014094,0.0,0.0,-0.0002617994307114132,-0.1562129606718304,0.0,0.0,-0.008677180695991793,0.154816697249429,0.0,0.0,0.00841538126528038,0.0,0.0,0.0,0.0034906585560035243,1,1,1,11.350732,0,-0.10000000149011612,0.20000000298023224,-0.30000001192092896,-0.7867943644523621,-1.5440927743911743,1.0848966836929321,2,0,0,-1.0,0,0.0,0.0,0.0,0.0,0.0,0.0,3,0,0,10771.405926,0,0.0,0.0,0.0,0.008726646192371845,0.034208450466394424,2.545562505722046,4,1,1,31.337677,0,0.4000000059604645,-0.5,0.0,0.010297441855072975,0.03490658476948738,2.5527184009552
7,0.172199946,0.019970402,541,10.470586,2.550624132156372,146.13999789677845,0.034208450466394424,1.9599998354067332,-0.034208450466394424,-1.9599998354067332,-1.544267177581787,-88.47999171601602,-0.0013962634224014094,0.0,0.0,-0.0002617994307114132,-0.10486863503439364,0.0,0.0,-0.0087330836210905,0.10347237161199223,0.0,0.0,0.008471284190379087,0.0,0.0,0.0,0.0034906585560035243,1,1,1,11.324748,0,-0.20000000298023224,0.20000000298023224,-0.30000001192092896,-0.7812093496322632,-1.544267177581787,1.088561773300171,2,0,0,-1.0,0,0.0,0.0,0.0,0.0,0.0,0.0,3,0,0,10791.36868,0,0.0,0.0,0.0,0.008726646192371845,0.034208450466394424,2.545562505722046,4,1,1,11.320428,0,0.4000000059604645,-0.5,0.0,0.009948376566171646,0.03473205119371414,2.550624132156372
8,0.19228369,0.020088032,542,10.018145,2.550624132156372,146.13999789677845,0.034208450466394424,1.9599998354067332,-0.034208450466394424,-1.9599998354067332,-1.544267177581787,-88.47999171601602,-0.0013962634224014094,0.0,0.0,-0.0002617994307114132,0.0,0.0,0.0,0.0,-0.0013962634224014094,0.0,0.0,-0.0002617994307114132,0.0,0.0,0.0,0.0034906585560035243,1,1,1,31.397804,0,-0.20000000298023224,0.20000000298023224,-0.30000001192092896,-0.7812093496322632,-1.544267177581787,1.088561773300171,2,0,0,-1.0,0,0.0,0.0,0.0,0.0,0.0,0.0,3,0,0,10811.441736,0,0.0,0.0,0.0,0.008726646192371845,0.034208450466394424,2.545562505722046,4,1,1,31.393484,0,0.4000000059604645,-0.5,0.0,0.009948376566171646,0.03473205119371414,2.550624132156372
9,0.212374826,0.020075168,543,10.791284,2.5502750873565674,146.11999910288864,0.034208450466394424,1.9599998354067332,-0.034208450466394424,-1.9599998354067332,-1.544441819190979,-88.48999794315009,0.0003490658556003527,0.0,0.0,-0.0002617994307114132,-0.017386893091240255,0.0,0.0,-0.008699384692167684,0.01773595894684061,0.0,0.0,0.00843758526145627,0.0017453292780017621,0.0,0.0,0.0034906585560035243,1,1,1,11.452266,0,-0.20000000298023224,0.20000000298023224,-0.20000000298023224,-0.775449812412262,-1.544441819190979,1.0649999380111694,2,0,0,-1.0,0,0.0,0.0,0.0,0.0,0.0,0.0,3,0,0,10831.511913,0,0.0,0.0,0.0,0.008726646192371845,0.034208450466394424,2.545562505722046,4,1,1,11.449066,0,0.4000000059604645,-0.5,0.10000000149011612,0.01012290921062231,0.03473205119371414,2.5502750873565674
10,0.232462474,0.020188831,544,10.615991,2.541199207305908,145.5999894806189,0.034208450466394424,1.9599998354067332,-0.034208450466394424,-1.9599998354067332,-1.544441819190979,-88.48999794315009,0.0003490658556003527,0.0,0.0,-0.0002617994307114132,-0.4495495579045255,0.0,0.0,0.0,0.44989862376012585,0.0,0.0,-0.0002617994307114132,0.0017453292780017621,0.0,0.0,0.0034906585560035243,1,1,1,11.655174,0,-0.20000000298023224,0.20000000298023224,-0.10000000149011612,-0.7681193947792053,-1.544441819190979,1.0522589683532715,2,0,0,-1.0,0,0.0,0.0,0.0,0.0,0.0,0.0,3,0,0,10851.703751,0,0.0,0.0,0.0,0.008726646192371845,0.034208450466394424,2.545562505722046,4,1,1,11.650918,0,0.30000001192092896,-0.4000000059604645,0.10000000149011612,0.009948376566171646,0.03508111834526062,2.541199207305908
11,0.252565098,0.020160799,545,10.43129,2.546086072921753,145.87998625545438,0.034208450466394424,1.9599998354067332,-0.034208450466394424,-1.9599998354067332,-1.544267177581787,-88.47999171601602,0.0003490658556003527,0.0,0.0,-0.0002617994307114132,0.2423944416014825,0.0,0.0,0.008662434915991897,-0.24204537574588214,0.0,0.0,-0.00892423434670331,0.0017453292780017621,0.0,0.0,0.0034906585560035243,1,1,1,11.791172,0,-0.10000000149011612,0.20000000298023224,-0.10000000149011612,-0.7756242752075195,-1.544267177581787,1.0606366395950317,2,0,0,-1.0,0,0.0,0.0,0.0,0.0,0.0,0.0,3,0,0,10871.846022,0,0.0,0.0,0.0,0.008726646192371845,0.034208450466394424,2.545562505722046,4,1,1,11.786532,0,0.4000000059604645,-0.30000001192092896,0.10000000149011612,0.011170106939971447,0.03612831234931946,2.546086072921753
12,0.272650698,0.019966946,546,10.996241,2.546086072921753,145.87998625545438,0.034208450466394424,1.9599998354067332,-0.034208450466394424,-1.9599998354067332,-1.544267177581787,-88.47999171601602,0.0003490658556003527,0.0,0.0,-0.0002617994307114132,0.0,0.0,0.0,0.0,0.0003490658556003527,0.0,0.0,-0.0002617994307114132,0.0017453292780017621,0.0,0.0,0.0034906585560035243,1,1,1,31.799142,0,-0.10000000149011612,0.20000000298023224,-0.10000000149011612,-0.7756242752075195,-1.544267177581787,1.0606366395950317,2,0,0,-1.0,0,0.0,0.0,0.0,0.0,0.0,0.0,3,0,0,10891.853992,0,0.0,0.0,0.0,0.008726646192371845,0.034208450466394424,2.545562505722046,4,1,1,31.794502,0,0.4000000059604645,-0.30000001192092896,0.10000000149011612,0.011170106939971447,0.03612831234931946,2.546086072921753
13,0.292728203,0.020019073,547,10.78242,2.5497515201568604,146.09000091205394,0.034208450466394424,1.9599998354067332,-0.034208450466394424,-1.9599998354067332,-1.544267177581787,-88.47999171601602,0.0003490658556003527,0.0,0.0,-0.0002617994307114132,0.18309775058552522,0.0,0.0,0.0,-0.18274868472992487,0.0,0.0,-0.0002617994307114132,0.0017453292780017621,0.0,0.0,0.0034906585560035243,1,1,1,11.807428,0,0.0,0.20000000298023224,-0.20000000298023224,-0.7806857824325562,-1.544267177581787,1.0665706396102905,2,0,0,-1.0,0,0.0,0.0,0.0,0.0,0.0,0.0,3,0,0,10911.867561,0,0.0,0.0,0.0,0.008726646192371845,0.034208450466394424,2.545562505722046,4,1,1,11.802916,0,0.4000000059604645,-0.30000001192092896,0.10000000149011612,0.010646509006619453,0.03595378249883652,2.5497515201568604
14,0.312824747,0.020137791,548,11.40577,2.5532419681549072,146.28998885095191,0.034208450466394424,1.9599998354067332,-0.034208450466394424,-1.9599998354067332,-1.544267177581787,-88.47999171601602,0.0003490658556003527,0.0,0.0,-0.0002617994307114132,0.1733282462831636,0.0,0.0,0.0,-0.17297918042756324,0.0,0.0,-0.0002617994307114132,0.0017453292780017621,0.0,0.0,0.0034906585560035243,1,1,1,11.951681,0,0.0,0.20000000298023224,-0.30000001192092896,-0.7787659168243408,-1.544267177581787,1.0667451620101929,2,0,0,-1.0,0,0.0,0.0,0.0,0.0,0.0,0.0,3,0,0,10932.01556,0,0.0,0.0,0.0,0.008726646192371845,0.034208450466394424,2.545562505722046,4,1,1,11.948961,0,0.4000000059604645,-0.5,0.10000000149011612,0.010297441855072975,0.0354301817715168,2.5532419681549072
15,0.332902827,0.020107232,549,11.189646,2.5542891025543213,146.34998523262132,0.034208450466394424,1.9599998354067332,-0.034208450466394424,-1.9599998354067332,-1.544441819190979,-88.48999794315009,0.002094395133602115,0.0,0.0,-0.0002617994307114132,0.052077501240054454,0.0,0.0,-0.008685512217290503,-0.04998310610645234,0.0,0.0,0.00842371278657909,0.0034906585560035243,0.0,0.0,0.0034906585560035243,1,1,1,12.051296,0,-0.10000000149011612,0.20000000298023224,-0.20000000298023224,-0.7791149616241455,-1.544441819190979,1.0732029676437378,2,0,0,-1.0,0,0.0,0.0,0.0,0.0,0.0,0.0,3,0,0,10952.11268,0,0.0,0.0,0.0,0.008726646192371845,0.034208450466394424,2.545562505722046,4,1,1,12.048,0,0.30000001192092896,-0.5,0.20000000298023224,0.010297441855072975,0.0354301817715168,2.5542891025543213
16,0.352990091,0.020288797,550,11.000785,2.5542891025543213,146.34998523262132,0.034208450466394424,1.9599998354067332,-0.034208450466394424,-1.9599998354067332,-1.544441819190979,-88.48999794315009,0.002094395133602115,0.0,0.0,-0.0002617994307114132,0.0,0.0,0.0,0.0,0.002094395133602115,0.0,0.0,-0.0002617994307114132,0.0034906585560035243,0.0,0.0,0.0034906585560035243,1,1,1,12.343227,0,-0.10000000149011612,0.20000000298023224,-0.20000000298023224,-0.7744025588035583,-1.544441819190979,1.0693632364273071,2,0,0,-1.0,0,0.0,0.0,0.0,0.0,0.0,0.0,3,0,0,10972.401093,0,0.0,0.0,0.0,0.008726646192371845,0.034208450466394424,2.545562505722046,4,1,1,12.338459,0,0.30000001192092896,-0.5,0.20000000298023224,0.010297441855072975,0.03525565192103386,2.5542891025543213
17,0.373064524,0.019803653,551,11.144271,2.5462608337402344,145.88999931277763,0.034208450466394424,1.9599998354067332,-0.034208450466394424,-1.9599998354067332,-1.5446163415908813,-88.49999734009499,0.002094395133602115,0.0,0.0,-0.0002617994307114132,-0.40539332890184016,0.0,0.0,-0.008812636734361268,0.40748772403544226,0.0,0.0,0.008550837303649856,0.0034906585560035243,0.0,0.0,0.0034906585560035243,1,1,1,12.147327,0,-0.20000000298023224,0.20000000298023224,-0.10000000149011612,-0.7661994695663452,-1.5446163415908813,1.0512118339538574,2,0,0,-1.0,0,0.0,0.0,0.0,0.0,0.0,0.0,3,0,0,10992.21025,0,0.0,0.0,0.0,0.008726646192371845,0.034208450466394424,2.545562505722046,4,1,1,12.151871,0,0.30000001192092896,-0.4000000059604645,0.20000000298023224,0.009599311277270317,0.03473205119371414,2.5462608337402344
18,0.39315422,0.020124095,552,11.891938,2.5462608337402344,145.88999931277763,0.034208450466394424,1.9599998354067332,-0.034208450466394424,-1.9599998354067332,-1.5446163415908813,-88.49999734009499,0.002094395133602115,0.0,0.0,-0.0002617994307114132,0.0,0.0,0.0,0.0,0.002094395133602115,0.0,0.0,-0.0002617994307114132,0.0034906585560035243,0.0,0.0,0.0034906585560035243,1,1,1,32.267359,0,-0.20000000298023224,0.20000000298023224,-0.10000000149011612,-0.7661994695663452,-1.5446163415908813,1.0512118339538574,2,0,0,-1.0,0,0.0,0.0,0.0,0.0,0.0,0.0,3,0,0,11012.330282,0,0.0,0.0,0.0,0.008726646192371845,0.034208450466394424,2.545562505722046,4,1,1,32.271903,0,0.30000001192092896,-0.4000000059604645,0.20000000298023224,0.009599311277270317,0.03473205119371414,2.5462608337402344
19,0.41323118,0.020160575,553,11.088559,2.5527184009552,146.25999066011724,0.034208450466394424,1.9599998354067332,-0.034208450466394424,-1.9599998354067332,-1.544441819190979,-88.48999794315009,0.0003490658556003527,0.0,0.0,0.0014835299773275118,0.3203066983439619,0.0,0.0,0.00865661817196899,-0.31995763248836157,0.0,0.0,-0.007173088194641479,0.0017453292780017621,0.0,0.0,0.005235987964042448,1,1,1,12.455705,0,-0.10000000149011612,0.30000001192092896,-0.10000000149011612,-0.7737044095993042,-1.544441819190979,1.0583676099777222,2,0,0,-1.0,0,0.0,0.0,0.0,0.0,0.0,0.0,3,0,0,11032.500008,0,0.0,0.0,0.0,0.008726646192371845,0.034208450466394424,2.545562505722046,4,1,1,12.452761,0,0.4000000059604645,-0.4000000059604645,0.10000000149011612,0.010646509006619453,0.03525565192103386,2.5527184009552
20,0.433321452,0.020061889,554,11.679814,2.557605266571045,146.53998743495274,0.034208450466394424,1.9599998354067332,-0.034208450466394424,-1.9599998354067332,-1.5446163415908813,-88.49999734009499,0.0003490658556003527,0.0,0.0,0.0014835299773275118,0.24358950524772252,0.0,0.0,-0.008699200753345996,-0.24324043939212217,0.0,0.0,0.010182730730673507,0.0017453292780017621,0.0,0.0,0.005235987964042448,1,1,1,12.548761,0,-0.10000000149011612,0.30000001192092896,-0.10000000149011612,-0.7682939171791077,-1.5446163415908813,1.0458012819290161,2,0,0,-1.0,0,0.0,0.0,0.0,0.0,0.0,0.0,3,0,0,11052.594569,0,0.0,0.0,0.0,0.008726646192371845,0.034208450466394424,2.545562505722046,4,1,1,12.544569,0,0.4000000059604645,-0.4000000059604645,0.10000000149011612,0.011170106939971447,0.03577924892306328,2.557605266571045
21,0.453396557,0.020007393,555,11.364171,2.55202054977417,146.22000673271597,0.034208450466394424,1.9599998354067332,-0.034208450466394424,-1.9599998354067332,-1.5446163415908813,-88.49999734009499,0.0003490658556003527,0.0,0.0,-0.0002617994307114132,-0.27913265845655155,0.0,0.0,0.0,0.2794817243121519,0.0,0.0,-0.0002617994307114132,0.0017453292780017621,0.0,0.0,0.0034906585560035243,1,1,1,12.509816,0,-0.10000000149011612,0.20000000298023224,-0.20000000298023224,-0.7646287083625793,-1.5446163415908813,1.048768401145935,2,0,0,-1.0,0,0.0,0.0,0.0,0.0,0.0,0.0,3,0,0,11072.574122,0,0.0,0.0,0.0,0.008726646192371845,0.034208450466394424,2.545562505722046,4,1,1,12.506296,0,0.4000000059604645,-0.6000000238418579,0.10000000149011612,0.009773843921720982,0.03473205119371414,2.55202054977417
22,0.473481005,0.020161407,556,12.308988,2.55202054977417,146.22000673271597,0.034208450466394424,1.9599998354067332,-0.034208450466394424,-1.9599998354067332,-1.5446163415908813,-88.49999734009499,0.0003490658556003527,0.0,0.0,-0.0002617994307114132,0.0,0.0,0.0,0.0,0.0003490658556003527,0.0,0.0,-0.0002617994307114132,0.0017453292780017621,0.0,0.0,0.0034906585560035243,1,1,1,32.694167,0,-0.10000000149011612,0.20000000298023224,-0.20000000298023224,-0.7646287083625793,-1.5446163415908813,1.048768401145935,2,0,0,-1.0,0,0.0,0.0,0.0,0.0,0.0,0.0,3,0,0,11092.758473,0,0.0,0.0,0.0,0.008726646192371845,0.034208450466394424,2.545562505722046,4,1,1,32.690647,0,0.4000000059604645,-0.6000000238418579,0.10000000149011612,0.009773843921720982,0.03473205119371414,2.55202054977417
23,0.493567149,0.02000813,557,11.989185,2.5403268337249756,145.55000615627273,0.034208450466394424,1.9599998354067332,-0.034208450466394424,-1.9599998354067332,-1.5446163415908813,-88.49999734009499,0.0003490658556003527,0.0,0.0,0.0014835299773275118,-0.5844482242565565,0.0,0.0,0.0,0.5847972901121569,0.0,0.0,0.0014835299773275118,0.0017453292780017621,0.0,0.0,0.005235987964042448,1,1,1,12.665878,0,-0.20000000298023224,0.30000001192092896,-0.20000000298023224,-0.7600908875465393,-1.5446163415908813,1.0576695203781128,2,0,0,-1.0,0,0.0,0.0,0.0,0.0,0.0,0.0,3,0,0,11112.723563,0,0.0,0.0,0.0,0.008726646192371845,0.034208450466394424,2.545562505722046,4,1,1,12.661686,0,0.4000000059604645,-0.4000000059604645,0.10000000149011612,0.009773843921720982,0.03508111834526062,2.5403268337249756
24,0.513655821,0.020397947,558,11.671526,2.544515371322632,145.7899916829503,0.034208450466394424,1.9599998354067332,-0.034208450466394424,-1.9599998354067332,-1.544441819190979,-88.48999794315009,0.0003490658556003527,0.0,0.0,-0.0002617994307114132,0.20534113544153487,0.0,0.0,0.008555880643397287,-0.20499206958593452,0.0,0.0,-0.0088176800741087,0.0017453292780017621,0.0,0.0,0.0034906585560035243,1,1,1,13.080272,0,-0.20000000298023224,0.20000000298023224,-0.20000000298023224,-0.7635815143585205,-1.544441819190979,1.057320475578308,2,0,0,-1.0,0,0.0,0.0,0.0,0.0,0.0,0.0,3,0,0,11133.14359,0,0.0,0.0,0.0,0.008726646192371845,0.034208450466394424,2.545562505722046,4,1,1,13.076976,0,0.4000000059604645,-0.4000000059604645,0.10000000149011612,0.010646509006619453,0.03577924892306328,2.544515371322632
25,0.534034281,0.02045545,559,12.53404,2.54207181930542,145.64998646534337,0.034208450466394424,1.9599998354067332,-0.034208450466394424,-1.9599998354067332,-1.5446163415908813,-88.49999734009499,0.0003490658556003527,0.0,0.0,-0.0002617994307114132,-0.1194572603981782,0.0,0.0,-0.00853182892101341,0.11980632625377854,0.0,0.0,0.008270029490301997,0.0017453292780017621,0.0,0.0,0.0034906585560035243,1,1,1,13.588999,0,-0.20000000298023224,0.20000000298023224,-0.20000000298023224,-0.7670722007751465,-1.5446163415908813,1.0545278787612915,2,0,0,-1.0,0,0.0,0.0,0.0,0.0,0.0,0.0,3,0,0,11153.656351,0,0.0,0.0,0.0,0.008726646192371845,0.034208450466394424,2.545562505722046,4,1,1,13.586439,0,0.30000001192092896,-0.30000001192092896,0.10000000149011612,0.011868239380419254,0.036826446652412415,2.54207181930542
26,0.554127081,0.020299261,560,12.462489,2.5478315353393555,145.97999388528171,0.034208450466394424,1.9599998354067332,-0.034208450466394424,-1.9599998354067332,-1.544441819190979,-88.48999794315009,-0.0013962634224014094,0.0,0.0,-0.0002617994307114132,0.28374018314930516,0.0,0.0,0.00859747553875699,-0.28513644657170656,0.0,0.0,-0.008859274969468403,0.0,0.0,0.0,0.0034906585560035243,1,1,1,13.764069,0,-0.20000000298023224,0.20000000298023224,-0.20000000298023224,-0.7810348272323608,-1.544441819190979,1.0793116092681885,2,0,0,-1.0,0,0.0,0.0,0.0,0.0,0.0,0.0,3,0,0,11173.83603,0,0.0,0.0,0.0,0.008726646192371845,0.034208450466394424,2.545562505722046,4,1,1,13.759621,0,0.30000001192092896,-0.4000000059604645,0.0,0.01047197449952364,0.0354301817715168,2.5478315353393555
27,0.574203625,0.019540489,561,12.645079,2.5478315353393555,145.97999388528171,0.034208450466394424,1.9599998354067332,-0.034208450466394424,-1.9599998354067332,-1.544441819190979,-88.48999794315009,-0.0013962634224014094,0.0,0.0,-0.0002617994307114132,0.0,0.0,0.0,0.0,-0.0013962634224014094,0.0,0.0,-0.0002617994307114132,0.0,0.0,0.0,0.0034906585560035243,1,1,1,13.331947,0,-0.20000000298023224,0.20000000298023224,-0.20000000298023224,-0.7810348272323608,-1.544441819190979,1.0793116092681885,2,0,0,-1.0,0,0.0,0.0,0.0,0.0,0.0,0.0,3,0,0,11193.40935,0,0.0,0.0,0.0,0.008726646192371845,0.034208450466394424,2.545562505722046,4,1,1,33.332941,0,0.30000001192092896,-0.4000000059604645,0.0,0.01047197449952364,0.0354301817715168,2.5478315353393555
28,0.594319433,0.020257373,562,12.145758,2.550624132156372,146.13999789677845,0.034208450466394424,1.9599998354067332,-0.034208450466394424,-1.9599998354067332,-1.544441819190979,-88.48999794315009,-0.0013962634224014094,0.0,0.0,-0.0020071287087131753,0.13785582252035353,0.0,0.0,0.0,-0.13925208594275493,0.0,0.0,-0.0020071287087131753,0.0,0.0,0.0,0.0017453292780017621,1,1,1,13.614984,0,-0.20000000298023224,0.10000000149011612,-0.20000000298023224,-0.7871434688568115,-1.544441819190979,1.0899580717086792,2,0,0,-1.0,0,0.0,0.0,0.0,0.0,0.0,0.0,3,0,0,11213.680804,0,0.0,0.0,0.0,0.008726646192371845,0.034208450466394424,2.545562505722046,4,1,1,13.612072,0,0.30000001192092896,-0.6000000238418579,0.0,0.010821041651070118,0.03490658476948738,2.550624132156372
29,0.614393769,0.019878436,563,12.689686,2.547657012939453,145.96999448833682,0.034208450466394424,1.9599998354067332,-0.034208450466394424,-1.9599998354067332,-1.5446163415908813,-88.49999734009499,-0.0013962634224014094,0.0,0.0,-0.0002617994307114132,-0.14926321250419025,0.0,0.0,-0.00877948345143168,0.14786694908178885,0.0,0.0,0.008517684020720267,0.0,0.0,0.0,0.0034906585560035243,1,1,1,13.475529,0,-0.20000000298023224,0.20000000298023224,-0.10000000149011612,-0.7771950960159302,-1.5446163415908813,1.0629054307937622,2,0,0,-1.0,0,0.0,0.0,0.0,0.0,0.0,0.0,3,0,0,11233.563111,0,0.0,0.0,0.0,0.008726646192371845,0.034208450466394424,2.545562505722046,4,1,1,13.470985,0,0.4000000059604645,-0.5,0.0,0.011344639584422112,0.03560471534729004,2.547657012939453
30,0.634479689,0.020012417,564,12.326107,2.550100564956665,146.10999970594375,0.034208450466394424,1.9599998354067332,-0.034208450466394424,-1.9599998354067332,-1.5446163415908813,-88.49999734009499,0.0003490658556003527,0.0,0.0,0.0014835299773275118,0.1221017939618145,0.0,0.0,0.0,-0.12175272810621415,0.0,0.0,0.0014835299773275118,0.0017453292780017621,0.0,0.0,0.005235987964042448,1,1,1,13.50724,0,-0.10000000149011612,0.30000001192092896,-0.10000000149011612,-0.7745770812034607,-1.5446163415908813,1.067094326019287,2,0,0,-1.0,0,0.0,0.0,0.0,0.0,0.0,0.0,3,0,0,11253.577192,0,0.0,0.0,0.0,0.008726646192371845,0.034208450466394424,2.545562505722046,4,1,1,13.504745,0,0.4000000059604645,-0.5,0.10000000149011612,0.011344639584422112,0.03560471534729004,2.550100564956665
31,0.654565514,0.02025715,565,13.194574,2.542595624923706,145.67999831655644,0.034208450466394424,1.9599998354067332,-0.034208450466394424,-1.9599998354067332,-1.5446163415908813,-88.49999734009499,0.0003490658556003527,0.0,0.0,-0.0002617994307114132,-0.37048350991916357,0.0,0.0,0.0,0.3708325757747639,0.0,0.0,-0.0002617994307114132,0.0017453292780017621,0.0,0.0,0.0034906585560035243,1,1,1,13.785413,0,-0.10000000149011612,0.20000000298023224,-0.20000000298023224,-0.7794640064239502,-1.5446163415908813,1.0794861316680908,2,0,0,-1.0,0,0.0,0.0,0.0,0.0,0.0,0.0,3,0,0,11273.836422,0,0.0,0.0,0.0,0.008726646192371845,0.034208450466394424,2.545562505722046,4,1,1,13.781765,0,0.4000000059604645,-0.5,0.10000000149011612,0.009948376566171646,0.03473205119371414,2.542595624923706
32,0.674656874,0.019933058,566,12.78738,2.5422465801239014,145.65999952266662,0.034208450466394424,1.9599998354067332,-0.034208450466394424,-1.9599998354067332,-1.544267177581787,-88.47999171601602,0.0003490658556003527,0.0,0.0,-0.0002617994307114132,-0.017510850558137517,0.0,0.0,0.017516831039885515,0.01785991641373787,0.0,0.0,-0.01777863047059693,0.0017453292780017621,0.0,0.0,0.0034906585560035243,1,1,1,13.725766,0,-0.10000000149011612,0.20000000298023224,-0.20000000298023224,-0.7855726480484009,-1.544267177581787,1.0903071165084839,2,0,0,-1.0,0,0.0,0.0,0.0,0.0,0.0,0.0,3,0,0,11293.767049,0,0.0,0.0,0.0,0.008726646192371845,0.034208450466394424,2.545562505722046,4,1,1,13.72215,0,0.5,-0.6000000238418579,0.10000000149011612,0.011519172228872776,0.03612831234931946,2.5422465801239014
33,0.694935783,0.020342909,567,13.423499,2.553067684173584,146.28000311438535,0.034208450466394424,1.9599998354067332,-0.034208450466394424,-1.9599998354067332,-1.544441819190979,-88.48999794315009,0.0003490658556003527,0.0,0.0,-0.0002617994307114132,0.5319349385912613,0.0,0.0,-0.008584888679976622,-0.5315858727356609,0.0,0.0,0.00832308924926521,0.0017453292780017621,0.0,0.0,0.0034906585560035243,1,1,1,14.052513,0,-0.10000000149011612,0.20000000298023224,-0.20000000298023224,-0.7888888120651245,-1.544441819190979,1.082802176475525,2,0,0,-1.0,0,0.0,0.0,0.0,0.0,0.0,0.0,3,0,0,11314.110757,0,0.0,0.0,0.0,0.008726646192371845,0.034208450466394424,2.545562505722046,4,1,1,14.048481,0,0.5,-0.699999988079071,0.10000000149011612,0.011170106939971447,0.0354301817715168,2.553067684173584
34,0.715017031,0.020035841,568,12.911187,2.5534167289733887,146.30000190827516,0.034208450466394424,1.9599998354067332,-0.034208450466394424,-1.9599998354067332,-1.544441819190979,-88.48999794315009,0.0003490658556003527,0.0,0.0,-0.0002617994307114132,0.017421020650178223,0.0,0.0,0.0,-0.01707195479457787,0.0,0.0,-0.0002617994307114132,0.0017453292780017621,0.0,0.0,0.0034906585560035243,1,1,1,14.0576,0,-0.10000000149011612,0.20000000298023224,-0.20000000298023224,-0.7899360060691833,-1.544441819190979,1.0890854597091675,2,0,0,-1.0,0,0.0,0.0,0.0,0.0,0.0,0.0,3,0,0,11334.133542,0,0.0,0.0,0.0,0.008726646192371845,0.034208450466394424,2.545562505722046,4,1,1,14.054592,0,0.5,-0.699999988079071,0.10000000149011612,0.010646509006619453,0.03490658476948738,2.5534167289733887
35,0.735095687,0.020142783,569,13.552328,2.5504493713378906,146.1299848394552,0.034208450466394424,1.9599998354067332,-0.034208450466394424,-1.9599998354067332,-1.544441819190979,-88.48999794315009,0.0003490658556003527,0.0,0.0,-0.0002617994307114132,-0.14731616954310867,0.0,0.0,0.0,0.14766523539870902,0.0,0.0,-0.0002617994307114132,0.0017453292780017621,0.0,0.0,0.0034906585560035243,1,1,1,14.208926,0,-0.10000000149011612,0.20000000298023224,-0.20000000298023224,-0.7909832000732422,-1.544441819190979,1.0848966836929321,2,0,0,-1.0,0,0.0,0.0,0.0,0.0,0.0,0.0,3,0,0,11354.284645,0,0.0,0.0,0.0,0.008726646192371845,0.034208450466394424,2.545562505722046,4,1,1,14.206238,0,0.4000000059604645,-0.6000000238418579,0.10000000149011612,0.01012290921062231,0.0345575176179409,2.5504493713378906
36,0.755186023,0.020102336,570,13.260557,2.5504493713378906,146.1299848394552,0.034208450466394424,1.9599998354067332,-0.034208450466394424,-1.9599998354067332,-1.544441819190979,-88.48999794315009,0.0003490658556003527,0.0,0.0,-0.0002617994307114132,0.0,0.0,0.0,0.0,0.0003490658556003527,0.0,0.0,-0.0002617994307114132,0.0017453292780017621,0.0,0.0,0.0034906585560035243,1,1,1,14.318908,0,-0.10000000149011612,0.20000000298023224,-0.30000001192092896,-0.7895869016647339,-1.544441819190979,1.0889109373092651,2,0,0,-1.0,0,0.0,0.0,0.0,0.0,0.0,0.0,3,0,0,11374.392069,0,0.0,0.0,0.0,0.008726646192371845,0.034208450466394424,2.545562505722046,4,1,1,14.31606,0,0.5,-0.6000000238418579,0.10000000149011612,0.011170106939971447,0.0354301817715168,2.5504493713378906
37,0.77526212,0.020056992,571,13.018096,2.5563838481903076,146.47000531671677,0.034208450466394424,1.9599998354067332,-0.034208450466394424,-1.9599998354067332,-1.5446163415908813,-88.49999734009499,0.0003490658556003527,0.0,0.0,-0.0002617994307114132,0.29588070097535024,0.0,0.0,-0.008701324700251352,-0.2955316351197499,0.0,0.0,0.008439525269539939,0.0017453292780017621,0.0,0.0,0.0034906585560035243,1,1,1,14.388315,0,-0.10000000149011612,0.20000000298023224,-0.30000001192092896,-0.780511200428009,-1.5446163415908813,1.0761699676513672,2,0,0,-1.0,0,0.0,0.0,0.0,0.0,0.0,0.0,3,0,0,11394.44647,0,0.0,0.0,0.0,0.008726646192371845,0.034208450466394424,2.545562505722046,4,1,1,14.384859,0,0.4000000059604645,-0.5,0.10000000149011612,0.010646509006619453,0.03508111834526062,2.5563838481903076
38,0.795349352,0.020055937,572,13.635047,2.556558132171631,146.47999105328333,0.034208450466394424,1.9599998354067332,-0.034208450466394424,-1.9599998354067332,-1.544441819190979,-88.48999794315009,0.0003490658556003527,0.0,0.0,-0.0002617994307114132,0.008689894734075112,0.0,0.0,0.00870178241496988,-0.00834082887847476,0.0,0.0,-0.008963581845681292,0.0017453292780017621,0.0,0.0,0.0034906585560035243,1,1,1,14.432154,0,-0.10000000149011612,0.20000000298023224,-0.30000001192092896,-0.7761478424072266,-1.544441819190979,1.0651744604110718,2,0,0,-1.0,0,0.0,0.0,0.0,0.0,0.0,0.0,3,0,0,11414.494534,0,0.0,0.0,0.0,0.008726646192371845,0.034208450466394424,2.545562505722046,4,1,1,14.42953,0,0.4000000059604645,-0.6000000238418579,0.10000000149011612,0.011170106939971447,0.03577924892306328,2.556558132171631
39,0.815430504,0.020119232,573,13.207374,2.556558132171631,146.47999105328333,0.034208450466394424,1.9599998354067332,-0.034208450466394424,-1.9599998354067332,-1.544441819190979,-88.48999794315009,0.0003490658556003527,0.0,0.0,-0.0002617994307114132,0.0,0.0,0.0,0.0,0.0003490658556003527,0.0,0.0,-0.0002617994307114132,0.0017453292780017621,0.0,0.0,0.0034906585560035243,1,1,1,34.549626,0,-0.10000000149011612,0.20000000298023224,-0.30000001192092896,-0.7761478424072266,-1.544441819190979,1.0651744604110718,2,0,0,-1.0,0,0.0,0.0,0.0,0.0,0.0,0.0,3,0,0,11434.612006,0,0.0,0.0,0.0,0.008726646192371845,0.034208450466394424,2.545562505722046,4,1,1,34.547002,0,0.4000000059604645,-0.6000000238418579,0.10000000149011612,0.011170106939971447,0.03577924892306328,2.556558132171631
40,0.835516488,0.020003041,574,13.821028,2.558652400970459,146.5999838166221,0.034208450466394424,1.9599998354067332,-0.034208450466394424,-1.9599998354067332,-1.5446163415908813,-88.49999734009499,0.0003490658556003527,0.0,0.0,-0.0002617994307114132,0.10469752068338635,0.0,0.0,-0.008724793390282195,-0.104348454827786,0.0,0.0,0.008462993959570782,0.0017453292780017621,0.0,0.0,0.0034906585560035243,1,1,1,14.55676,0,-0.10000000149011612,0.20000000298023224,-0.20000000298023224,-0.7691665887832642,-1.5446163415908813,1.0644762516021729,2,0,0,-1.0,0,0.0,0.0,0.0,0.0,0.0,0.0,3,0,0,11454.625191,0,0.0,0.0,0.0,0.008726646192371845,0.034208450466394424,2.545562505722046,4,1,1,34.552249,0,0.4000000059604645,-0.5,0.10000000149011612,0.009948376566171646,0.03473205119371414,2.558652400970459
41,0.855604873,0.020274397,575,13.792068,2.549053430557251,146.05000332427434,0.034208450466394424,1.9599998354067332,-0.034208450466394424,-1.9599998354067332,-1.544441819190979,-88.48999794315009,0.002094395133602115,0.0,0.0,-0.0002617994307114132,-0.473452819001621,0.0,0.0,0.008608019262044821,0.4755472141352231,0.0,0.0,-0.008869818692756234,0.0034906585560035243,0.0,0.0,0.0034906585560035243,1,1,1,14.850995,0,-0.10000000149011612,0.20000000298023224,-0.20000000298023224,-0.7771950960159302,-1.544441819190979,1.0698868036270142,2,0,0,-1.0,0,0.0,0.0,0.0,0.0,0.0,0.0,3,0,0,11474.91226,0,0.0,0.0,0.0,0.008726646192371845,0.034208450466394424,2.545562505722046,4,1,1,14.846963,0,0.30000001192092896,-0.4000000059604645,0.20000000298023224,0.009599311277270317,0.0345575176179409,2.549053430557251
42,0.875689385,0.020186175,576,14.534424,2.549053430557251,146.05000332427434,0.034208450466394424,1.9599998354067332,-0.034208450466394424,-1.9599998354067332,-1.5446163415908813,-88.49999734009499,0.002094395133602115,0.0,0.0,-0.0002617994307114132,0.0,0.0,0.0,-0.00864563989474696,0.002094395133602115,0.0,0.0,0.008383840464035548,0.0034906585560035243,0.0,0.0,0.0034906585560035243,1,1,1,15.021393,0,-0.10000000149011612,0.20000000298023224,-0.10000000149011612,-0.7744025588035583,-1.5446163415908813,1.0613346099853516,2,0,0,-1.0,0,0.0,0.0,0.0,0.0,0.0,0.0,3,0,0,11495.082691,0,0.0,0.0,0.0,0.008726646192371845,0.034208450466394424,2.545562505722046,4,1,1,35.017394,0,0.30000001192092896,-0.4000000059604645,0.20000000298023224,0.009599311277270317,0.0345575176179409,2.549053430557251
43,0.895766793,0.020133984,577,14.280765,2.53299617767334,145.12999050345198,0.034208450466394424,1.9599998354067332,-0.034208450466394424,-1.9599998354067332,-1.5446163415908813,-88.49999734009499,0.002094395133602115,0.0,0.0,-0.0002617994307114132,-0.7975198988889199,0.0,0.0,0.0,0.799614294022522,0.0,0.0,-0.0002617994307114132,0.0034906585560035243,0.0,0.0,0.0034906585560035243,1,1,1,35.140721,0,-0.10000000149011612,0.20000000298023224,-0.10000000149011612,-0.7744025588035583,-1.5446163415908813,1.0613346099853516,2,0,0,-1.0,0,0.0,0.0,0.0,0.0,0.0,0.0,3,0,0,11515.202019,0,0.0,0.0,0.0,0.008726646192371845,0.034208450466394424,2.545562505722046,4,1,1,35.138097,0,0.30000001192092896,-0.5,0.20000000298023224,0.009424776770174503,0.0345575176179409,2.53299617767334
44,0.915851657,0.019774917,578,14.105632,2.5473079681396484,145.94999569444704,0.034208450466394424,1.9599998354067332,-0.034208450466394424,-1.9599998354067332,-1.544441819190979,-88.48999794315009,0.0003490658556003527,0.0,0.0,-0.0002617994307114132,0.7237345403931957,0.0,0.0,0.008825442852799016,-0.7233854745375954,0.0,0.0,-0.00908724228351043,0.0017453292780017621,0.0,0.0,0.0034906585560035243,1,1,1,14.912947,0,-0.20000000298023224,0.20000000298023224,-0.20000000298023224,-0.7717845439910889,-1.544441819190979,1.0588911771774292,2,0,0,-1.0,0,0.0,0.0,0.0,0.0,0.0,0.0,3,0,0,11534.986856,0,0.0,0.0,0.0,0.008726646192371845,0.034208450466394424,2.545562505722046,4,1,1,34.909396,0,0.4000000059604645,-0.5,0.10000000149011612,0.012391837313771248,0.036651913076639175,2.5473079681396484
45,0.935928618,0.020113439,579,13.858883,2.555685520172119,146.42999406855884,0.034208450466394424,1.9599998354067332,-0.034208450466394424,-1.9599998354067332,-1.544267177581787,-88.47999171601602,0.0003490658556003527,0.0,0.0,0.0014835299773275118,0.4165151485268483,0.0,0.0,0.008682831871361955,-0.41616608267124794,0.0,0.0,-0.007199301894034444,0.0017453292780017621,0.0,0.0,0.005235987964042448,1,1,1,14.968145,0,-0.10000000149011612,0.30000001192092896,-0.10000000149011612,-0.7642796635627747,-1.544267177581787,1.0592403411865234,2,0,0,-1.0,0,0.0,0.0,0.0,0.0,0.0,0.0,3,0,0,11555.055144,0,0.0,0.0,0.0,0.008726646192371845,0.034208450466394424,2.545562505722046,4,1,1,34.976787,0,0.4000000059604645,-0.5,0.10000000149011612,0.010995574295520782,0.0354301817715168,2.555685520172119
46,0.956014794,0.020101408,580,14.619287,2.5598742961883545,146.66999325561474,0.034208450466394424,1.9599998354067332,-0.034208450466394424,-1.9599998354067332,-1.543918251991272,-88.4599997523154,-0.0013962634224014094,0.0,0.0,0.0014835299773275118,0.20838221960547995,0.0,0.0,0.017358266172953492,-0.20977848302788135,0.0,0.0,-0.01587473619562598,0.0,0.0,0.0,0.005235987964042448,1,1,1,15.151951,0,0.0,0.30000001192092896,-0.10000000149011612,-0.7712609767913818,-1.543918251991272,1.0595893859863281,2,0,0,-1.0,0,0.0,0.0,0.0,0.0,0.0,0.0,3,0,0,11575.167368,0,0.0,0.0,0.0,0.008726646192371845,0.034208450466394424,2.545562505722046,4,1,1,15.149647,0,0.4000000059604645,-0.6000000238418579,0.0,0.012566369958221912,0.036651913076639175,2.5598742961883545
47,0.976115114,0.020546073,581,14.806836,2.552194833755493,146.22999246928254,0.034208450466394424,1.9599998354067332,-0.034208450466394424,-1.9599998354067332,-1.5440927743911743,-88.46999914926029,0.0003490658556003527,0.0,0.0,0.0014835299773275118,-0.3737678938871349,0.0,0.0,-0.008494197402216167,0.37411695974273523,0.0,0.0,0.009977727379543678,0.0017453292780017621,0.0,0.0,0.005235987964042448,1,1,1,15.733734,0,0.0,0.30000001192092896,-0.20000000298023224,-0.7735298871994019,-1.5440927743911743,1.0719811916351318,2,0,0,-1.0,0,0.0,0.0,0.0,0.0,0.0,0.0,3,0,0,11595.747457,0,0.0,0.0,0.0,0.008726646192371845,0.034208450466394424,2.545562505722046,4,1,1,15.73127,0,0.30000001192092896,-0.6000000238418579,0.10000000149011612,0.009773843921720982,0.034382984042167664,2.552194833755493
48,0.996199754,0.019584136,582,13.910114,2.540152072906494,145.5399930989495,0.034208450466394424,1.9599998354067332,-0.034208450466394424,-1.9599998354067332,-1.544441819190979,-88.48999794315009,0.0003490658556003527,0.0,0.0,0.0014835299773275118,-0.6149242861160188,0.0,0.0,-0.01782283373668808,0.6152733519716191,0.0,0.0,0.01930636371401559,0.0017453292780017621,0.0,0.0,0.005235987964042448,1,1,1,15.336908,0,-0.10000000149011612,0.30000001192092896,-0.20000000298023224,-0.7716100215911865,-1.544441819190979,1.0580185651779175,2,0,0,-1.0,0,0.0,0.0,0.0,0.0,0.0,0.0,3,0,0,11615.380712,0,0.0,0.0,0.0,0.008726646192371845,0.034208450466394424,2.545562505722046,4,1,1,15.334956,0,0.4000000059604645,-0.5,0.10000000149011612,0.009424776770174503,0.034382984042167664,2.540152072906494
49,1.016287178,0.020178431,583,14.66591,2.549576997756958,146.08000151510905,0.034208450466394424,1.9599998354067332,-0.034208450466394424,-1.9599998354067332,-1.544267177581787,-88.47999171601602,0.0003490658556003527,0.0,0.0,-0.0002617994307114132,0.4670791723332635,0.0,0.0,0.008654865643017266,-0.46673010647766316,0.0,0.0,-0.008916665073728678,0.0017453292780017621,0.0,0.0,0.0034906585560035243,1,1,1,15.507018,0,-0.10000000149011612,0.20000000298023224,-0.20000000298023224,-0.775449812412262,-1.544267177581787,1.0665706396102905,2,0,0,-1.0,0,0.0,0.0,0.0,0.0,0.0,0.0,3,0,0,11635.566503,0,0.0,0.0,0.0,0.008726646192371845,0.034208450466394424,2.545562505722046,4,1,1,15.504586,0,0.4000000059604645,-0.5,0.10000000149011612,0.01169370487332344,0.03612831234931946,2.549576997756958
50,1.036369355,0.020379644,584,14.492282,2.5357887744903564,145.2899945149487,0.034208450466394424,1.9599998354067332,-0.034208450466394424,-1.9599998354067332,-1.5440927743911743,-88.46999914926029,0.0003490658556003527,0.0,0.0,-0.0002617994307114132,-0.6765684065237628,0.0,0.0,0.008557715267881665,0.6769174723793632,0.0,0.0,-0.008819514698593078,0.0017453292780017621,0.0,0.0,0.0034906585560035243,1,1,1,15.865635,0,-0.10000000149011612,0.20000000298023224,-0.30000001192092896,-0.7801621556282043,-1.5440927743911743,1.0759954452514648,2,0,0,-1.0,0,0.0,0.0,0.0,0.0,0.0,0.0,3,0,0,11655.93309,0,0.0,0.0,0.0,0.008726646192371845,0.034208450466394424,2.545562505722046,4,1,1,15.861091,0,0.5,-0.5,0.10000000149011612,0.009948376566171646,0.03525565192103386,2.5357887744903564
51,1.056444459,0.02010752,585,14.911955,2.5532419681549072,146.28998885095191,0.034208450466394424,1.9599998354067332,-0.034208450466394424,-1.9599998354067332,-1.544267177581787,-88.47999171601602,-0.0013962634224014094,0.0,0.0,0.0014835299773275118,0.8679933509727098,0.0,0.0,-0.008673530629972915,-0.8693896143951112,0.0,0.0,0.010157060607300426,0.0,0.0,0.0,0.005235987964042448,1,1,1,15.985281,0,-0.20000000298023224,0.30000001192092896,-0.30000001192092896,-0.7756242752075195,-1.544267177581787,1.0697122812271118,2,0,0,-1.0,0,0.0,0.0,0.0,0.0,0.0,0.0,3,0,0,11676.044994,0,0.0,0.0,0.0,0.008726646192371845,0.034208450466394424,2.545562505722046,4,1,1,15.982593,0,0.5,-0.5,0.0,0.010995574295520782,0.03595378249883652,2.5532419681549072
52,1.076528587,0.019901667,586,14.48297,2.5532419681549072,146.28998885095191,0.034208450466394424,1.9599998354067332,-0.034208450466394424,-1.9599998354067332,-1.544267177581787,-88.47999171601602,-0.0013962634224014094,0.0,0.0,0.0014835299773275118,0.0,0.0,0.0,0.0,-0.0013962634224014094,0.0,0.0,0.0014835299773275118,0.0,0.0,0.0,0.005235987964042448,1,1,1,35.915812,0,-0.20000000298023224,0.30000001192092896,-0.30000001192092896,-0.7756242752075195,-1.544267177581787,1.0697122812271118,2,0,0,-1.0,0,0.0,0.0,0.0,0.0,0.0,0.0,3,0,0,11695.975525,0,0.0,0.0,0.0,0.008726646192371845,0.034208450466394424,2.545562505722046,4,1,1,35.913124,0,0.5,-0.5,0.0,0.010995574295520782,0.03595378249883652,2.5532419681549072
53,1.096607115,0.020262397,587,15.469642,2.551147699356079,146.16999608761313,0.034208450466394424,1.9599998354067332,-0.034208450466394424,-1.9599998354067332,-1.543918251991272,-88.4599997523154,0.0003490658556003527,0.0,0.0,-0.0002617994307114132,-0.10335740627469321,0.0,0.0,0.017220351102346713,0.10370647213029356,0.0,0.0,-0.017482150533058127,0.0017453292780017621,0.0,0.0,0.0034906585560035243,1,1,1,16.078816,0,-0.10000000149011612,0.20000000298023224,-0.30000001192092896,-0.7787659168243408,-1.543918251991272,1.067094326019287,2,0,0,-1.0,0,0.0,0.0,0.0,0.0,0.0,0.0,3,0,0,11716.15114,0,0.0,0.0,0.0,0.008726646192371845,0.034208450466394424,2.545562505722046,4,1,1,16.076225,0,0.5,-0.5,0.10000000149011612,0.010646509006619453,0.03577924892306328,2.551147699356079
54,1.1166907,0.01995149,588,14.907346,2.5527184009552,146.25999066011724,0.034208450466394424,1.9599998354067332,-0.034208450466394424,-1.9599998354067332,-1.5440927743911743,-88.46999914926029,0.0003490658556003527,0.0,0.0,-0.0002617994307114132,0.07872602994167824,0.0,0.0,-0.008747336660186471,-0.07837696408607789,0.0,0.0,0.008485537229475058,0.0017453292780017621,0.0,0.0,0.0034906585560035243,1,1,1,16.07072,0,-0.10000000149011612,0.20000000298023224,-0.20000000298023224,-0.7812093496322632,-1.5440927743911743,1.0789625644683838,2,0,0,-1.0,0,0.0,0.0,0.0,0.0,0.0,0.0,3,0,0,11736.133637,0,0.0,0.0,0.0,0.008726646192371845,0.034208450466394424,2.545562505722046,4,1,1,16.06848,0,0.5,-0.5,0.10000000149011612,0.010821041651070118,0.03560471534729004,2.5527184009552
55,1.136765868,0.020173951,589,15.68183,2.558128833770752,146.56998562578744,0.034208450466394424,1.9599998354067332,-0.034208450466394424,-1.9599998354067332,-1.544441819190979,-88.48999794315009,-0.0013962634224014094,0.0,0.0,-0.0002617994307114132,0.26818905307898083,0.0,0.0,-0.01730175709283162,-0.26958531650138223,0.0,0.0,0.017039957662120204,0.0,0.0,0.0,0.0034906585560035243,1,1,1,16.273053,0,-0.10000000149011612,0.20000000298023224,-0.20000000298023224,-0.7726572751998901,-1.544441819190979,1.0529570579528809,2,0,0,-1.0,0,0.0,0.0,0.0,0.0,0.0,0.0,3,0,0,11756.34026,0,0.0,0.0,0.0,0.008726646192371845,0.034208450466394424,2.545562505722046,4,1,1,16.270653,0,0.4000000059604645,-0.5,0.0,0.010646509006619453,0.03525565192103386,2.558128833770752
56,1.156851308,0.019771397,590,15.132783,2.558128833770752,146.56998562578744,0.034208450466394424,1.9599998354067332,-0.034208450466394424,-1.9599998354067332,-1.544267177581787,-88.47999171601602,-0.0013962634224014094,0.0,0.0,-0.0002617994307114132,0.0,0.0,0.0,0.00883304347142969,-0.0013962634224014094,0.0,0.0,-0.009094842902141102,0.0,0.0,0.0,0.0034906585560035243,1,1,1,15.988866,0,-0.10000000149011612,0.20000000298023224,-0.30000001192092896,-0.7761478424072266,-1.544267177581787,1.0740755796432495,2,0,0,-1.0,0,0.0,0.0,0.0,0.0,0.0,0.0,3,0,0,11776.06129,0,0.0,0.0,0.0,0.008726646192371845,0.034208450466394424,2.545562505722046,4,1,1,35.991683,0,0.4000000059604645,-0.5,0.0,0.010646509006619453,0.03525565192103386,2.558128833770752
57,1.176861358,0.019923555,591,14.719925,2.547657012939453,145.96999448833682,0.034208450466394424,1.9599998354067332,-0.034208450466394424,-1.9599998354067332,-1.544441819190979,-88.48999794315009,-0.0013962634224014094,0.0,0.0,-0.0002617994307114132,-0.525600016226965,0.0,0.0,-0.008765584715774596,0.5242037528045635,0.0,0.0,0.008503785285063183,0.0,0.0,0.0,0.0034906585560035243,1,1,1,15.95741,0,-0.10000000149011612,0.20000000298023224,-0.30000001192092896,-0.7696901559829712,-1.544441819190979,1.0608110427856445,2,0,0,-1.0,0,0.0,0.0,0.0,0.0,0.0,0.0,3,0,0,11795.993452,0,0.0,0.0,0.0,0.008726646192371845,0.034208450466394424,2.545562505722046,4,1,1,15.953922,0,0.4000000059604645,-0.5,0.0,0.01169370487332344,0.0363028459250927,2.547657012939453
58,1.196945134,0.020432539,592,15.792549,2.546609878540039,145.90999810666744,0.034208450466394424,1.9599998354067332,-0.034208450466394424,-1.9599998354067332,-1.544267177581787,-88.47999171601602,-0.0013962634224014094,0.0,0.0,-0.0002617994307114132,-0.051248373949711414,0.0,0.0,0.00854722994493707,0.049852110527310006,0.0,0.0,-0.008809029375648482,0.0,0.0,0.0,0.0034906585560035243,1,1,1,16.356027,0,-0.10000000149011612,0.20000000298023224,-0.30000001192092896,-0.7808602452278137,-1.544267177581787,1.0768680572509766,2,0,0,-1.0,0,0.0,0.0,0.0,0.0,0.0,0.0,3,0,0,11816.403591,0,0.0,0.0,0.0,0.008726646192371845,0.034208450466394424,2.545562505722046,4,1,1,16.353147,0,0.4000000059604645,-0.4000000059604645,0.0,0.010995574295520782,0.03560471534729004,2.546609878540039
59,1.217038094,0.019900195,593,15.275373,2.556209087371826,146.45999225939354,0.034208450466394424,1.9599998354067332,-0.034208450466394424,-1.9599998354067332,-1.5446163415908813,-88.49999734009499,0.0003490658556003527,0.0,0.0,-0.0002617994307114132,0.48236757638742284,0.0,0.0,-0.017545758174441924,-0.4820185105318225,0.0,0.0,0.01728395874373051,0.0017453292780017621,0.0,0.0,0.0034906585560035243,1,1,1,16.247837,0,-0.10000000149011612,0.20000000298023224,-0.30000001192092896,-0.7810348272323608,-1.5446163415908813,1.0733774900436401,2,0,0,-1.0,0,0.0,0.0,0.0,0.0,0.0,0.0,3,0,0,11836.322186,0,0.0,0.0,0.0,0.008726646192371845,0.034208450466394424,2.545562505722046,4,1,1,16.244925,0,0.30000001192092896,-0.4000000059604645,0.10000000149011612,0.011344639584422112,0.03577924892306328,2.556209087371826
60,1.237317547,0.02008944,594,16.016289,2.556209087371826,146.45999225939354,0.034208450466394424,1.9599998354067332,-0.034208450466394424,-1.9599998354067332,-1.5446163415908813,-88.49999734009499,0.0003490658556003527,0.0,0.0,-0.0002617994307114132,0.0,0.0,0.0,0.0,0.0003490658556003527,0.0,0.0,-0.0002617994307114132,0.0017453292780017621,0.0,0.0,0.0034906585560035243,1,1,1,36.332189,0,-0.10000000149011612,0.20000000298023224,-0.30000001192092896,-0.7810348272323608,-1.5446163415908813,1.0733774900436401,2,0,0,-1.0,0,0.0,0.0,0.0,0.0,0.0,0.0,3,0,0,11856.406538,0,0.0,0.0,0.0,0.008726646192371845,0.034208450466394424,2.545562505722046,4,1,1,36.329277,0,0.30000001192092896,-0.4000000059604645,0.10000000149011612,0.011344639584422112,0.03577924892306328,2.556209087371826
61,1.257392044,0.020079872,595,15.695718,2.5654592514038086,146.98998761822986,0.034208450466394424,1.9599998354067332,-0.034208450466394424,-1.9599998354067332,-1.5446163415908813,-88.49999734009499,0.0003490658556003527,0.0,0.0,-0.0002617994307114132,0.46066847597347343,0.0,0.0,0.0,-0.4603194101178731,0.0,0.0,-0.0002617994307114132,0.0017453292780017621,0.0,0.0,0.0034906585560035243,1,1,1,16.422459,0,-0.20000000298023224,0.20000000298023224,-0.20000000298023224,-0.7784168124198914,-1.5446163415908813,1.0620328187942505,2,0,0,-1.0,0,0.0,0.0,0.0,0.0,0.0,0.0,3,0,0,11876.489259,0,0.0,0.0,0.0,0.008726646192371845,0.034208450466394424,2.545562505722046,4,1,1,36.418204,0,0.30000001192092896,-0.4000000059604645,0.10000000149011612,0.01169370487332344,0.03595378249883652,2.5654592514038086
62,1.277480204,0.020158464,596,15.501354,2.5392792224884033,145.48998245384666,0.034208450466394424,1.9599998354067332,-0.034208450466394424,-1.9599998354067332,-1.544267177581787,-88.47999171601602,0.0003490658556003527,0.0,0.0,0.0014835299773275118,-1.2987114948542346,0.0,0.0,0.017320963000665043,1.299060560709835,0.0,0.0,-0.01583743302333753,0.0017453292780017621,0.0,0.0,0.005235987964042448,1,1,1,16.625591,0,-0.20000000298023224,0.30000001192092896,-0.20000000298023224,-0.7763224244117737,-1.544267177581787,1.0730284452438354,2,0,0,-1.0,0,0.0,0.0,0.0,0.0,0.0,0.0,3,0,0,11896.689161,0,0.0,0.0,0.0,0.008726646192371845,0.034208450466394424,2.545562505722046,4,1,1,16.622391,0,0.4000000059604645,-0.4000000059604645,0.10000000149011612,0.009250244125723839,0.034208450466394424,2.5392792224884033
63,1.297575404,0.020192606,597,16.008289,2.5418975353240967,145.64000072877684,0.034208450466394424,1.9599998354067332,-0.034208450466394424,-1.9599998354067332,-1.544441819190979,-88.48999794315009,0.002094395133602115,0.0,0.0,0.0014835299773275118,0.12966691053613186,0.0,0.0,-0.008648790017093115,-0.12757251540252973,0.0,0.0,0.010132319994420626,0.0034906585560035243,0.0,0.0,0.005235987964042448,1,1,1,16.776053,0,-0.20000000298023224,0.30000001192092896,-0.20000000298023224,-0.7675957679748535,-1.544441819190979,1.0451030731201172,2,0,0,-1.0,0,0.0,0.0,0.0,0.0,0.0,0.0,3,0,0,11916.837576,0,0.0,0.0,0.0,0.008726646192371845,0.034208450466394424,2.545562505722046,4,1,1,16.773205,0,0.4000000059604645,-0.4000000059604645,0.20000000298023224,0.012217304669320583,0.036651913076639175,2.5418975353240967
64,1.31767102,0.020106528,598,15.673575,2.5448644161224365,145.8099904768401,0.034208450466394424,1.9599998354067332,-0.034208450466394424,-1.9599998354067332,-1.5440927743911743,-88.46999914926029,0.0003490658556003527,0.0,0.0,0.003228859125292111,0.14755808652492583,0.0,0.0,0.01735977488528539,-0.14720902066932548,0.0,0.0,-0.014130915759993281,0.0017453292780017621,0.0,0.0,0.0069813171120070485,1,1,1,16.894195,0,-0.10000000149011612,0.4000000059604645,-0.20000000298023224,-0.7745770812034607,-1.5440927743911743,1.0691887140274048,2,0,0,-1.0,0,0.0,0.0,0.0,0.0,0.0,0.0,3,0,0,11936.948616,0,0.0,0.0,0.0,0.008726646192371845,0.034208450466394424,2.545562505722046,4,1,1,16.890387,0,0.4000000059604645,-0.5,0.10000000149011612,0.01047197449952364,0.03525565192103386,2.5448644161224365
65,1.337745932,0.01995645,599,16.270941,2.539977550506592,145.52999370200462,0.034208450466394424,1.9599998354067332,-0.034208450466394424,-1.9599998354067332,-1.5440927743911743,-88.46999914926029,0.0003490658556003527,0.0,0.0,0.003228859125292111,-0.24487649936961364,0.0,0.0,0.0,0.245225565225214,0.0,0.0,0.003228859125292111,0.0017453292780017621,0.0,0.0,0.0069813171120070485,1,1,1,16.853971,0,-0.10000000149011612,0.4000000059604645,-0.20000000298023224,-0.7691665887832642,-1.5440927743911743,1.0464993715286255,2,0,0,-1.0,0,0.0,0.0,0.0,0.0,0.0,0.0,3,0,0,11956.907466,0,0.0,0.0,0.0,0.008726646192371845,0.034208450466394424,2.545562505722046,4,1,1,16.850131,0,0.4000000059604645,-0.5,0.10000000149011612,0.01012290921062231,0.03525565192103386,2.539977550506592
66,1.357832876,0.020084992,600,16.073344,2.543119192123413,145.7099965073911,0.034208450466394424,1.9599998354067332,-0.034208450466394424,-1.9599998354067332,-1.543918251991272,-88.4599997523154,0.0003490658556003527,0.0,0.0,0.0014835299773275118,0.1564173695872664,0.0,0.0,0.00868919439461782,-0.15606830373166605,0.0,0.0,-0.007205664417290309,0.0017453292780017621,0.0,0.0,0.005235987964042448,1,1,1,16.927474,0,-0.20000000298023224,0.30000001192092896,-0.20000000298023224,-0.7688175439834595,-1.543918251991272,1.0632545948028564,2,0,0,-1.0,0,0.0,0.0,0.0,0.0,0.0,0.0,3,0,0,11976.997546,0,0.0,0.0,0.0,0.008726646192371845,0.034208450466394424,2.545562505722046,4,1,1,16.923282,0,0.5,-0.5,0.10000000149011612,0.011170106939971447,0.03612831234931946,2.543119192123413
67,1.377910637,0.020067745,601,15.819684,2.5488786697387695,146.03999026695112,0.034208450466394424,1.9599998354067332,-0.034208450466394424,-1.9599998354067332,-1.5440927743911743,-88.46999914926029,0.0003490658556003527,0.0,0.0,-0.0002617994307114132,0.2870017341438435,0.0,0.0,-0.008696662225992195,-0.28665266828824315,0.0,0.0,0.008434862795280782,0.0017453292780017621,0.0,0.0,0.0034906585560035243,1,1,1,16.991153,0,-0.20000000298023224,0.20000000298023224,-0.20000000298023224,-0.7677702903747559,-1.5440927743911743,1.0557496547698975,2,0,0,-1.0,0,0.0,0.0,0.0,0.0,0.0,0.0,3,0,0,11997.059499,0,0.0,0.0,0.0,0.008726646192371845,0.034208450466394424,2.545562505722046,4,1,1,16.988018,0,0.5,-0.5,0.10000000149011612,0.009948376566171646,0.03490658476948738,2.5488786697387695
68,1.398004717,0.020238302,602,16.816085,2.5488786697387695,146.03999026695112,0.034208450466394424,1.9599998354067332,-0.034208450466394424,-1.9599998354067332,-1.5440927743911743,-88.46999914926029,0.0003490658556003527,0.0,0.0,-0.0002617994307114132,0.0,0.0,0.0,0.0,0.0003490658556003527,0.0,0.0,-0.0002617994307114132,0.0017453292780017621,0.0,0.0,0.0034906585560035243,1,1,1,37.223919,0,-0.20000000298023224,0.20000000298023224,-0.20000000298023224,-0.7677702903747559,-1.5440927743911743,1.0557496547698975,2,0,0,-1.0,0,0.0,0.0,0.0,0.0,0.0,0.0,3,0,0,12017.292265,0,0.0,0.0,0.0,0.008726646192371845,0.034208450466394424,2.545562505722046,4,1,1,37.220784,0,0.5,-0.5,0.10000000149011612,0.009948376566171646,0.03490658476948738,2.5488786697387695
69,1.418079597,0.020238429,603,16.609399,2.5499258041381836,146.0999866486205,0.034208450466394424,1.9599998354067332,-0.034208450466394424,-1.9599998354067332,-1.544267177581787,-88.47999171601602,0.0003490658556003527,0.0,0.0,-0.0002617994307114132,0.051739905276939356,0.0,0.0,-0.008617427301931043,-0.051390839421339006,0.0,0.0,0.00835562787121963,0.0017453292780017621,0.0,0.0,0.0034906585560035243,1,1,1,17.473162,0,-0.10000000149011612,0.20000000298023224,-0.20000000298023224,-0.7810348272323608,-1.544267177581787,1.0833258628845215,2,0,0,-1.0,0,0.0,0.0,0.0,0.0,0.0,0.0,3,0,0,12037.539431,0,0.0,0.0,0.0,0.008726646192371845,0.034208450466394424,2.545562505722046,4,1,1,17.470634,0,0.4000000059604645,-0.6000000238418579,0.10000000149011612,0.012566369958221912,0.036826446652412415,2.5499258041381836
70,1.438165933,0.019725766,604,15.95661,2.563015937805176,146.84999606100126,0.034208450466394424,1.9599998354067332,-0.034208450466394424,-1.9599998354067332,-1.5446163415908813,-88.49999734009499,0.0003490658556003527,0.0,0.0,-0.0002617994307114132,0.6636058476508435,0.0,0.0,-0.017700910022669755,-0.6632567817952432,0.0,0.0,0.01743911059195834,0.0017453292780017621,0.0,0.0,0.0034906585560035243,1,1,1,17.172846,0,-0.10000000149011612,0.20000000298023224,-0.20000000298023224,-0.7798131108283997,-1.5446163415908813,1.0791370868682861,2,0,0,-1.0,0,0.0,0.0,0.0,0.0,0.0,0.0,3,0,0,12057.218637,0,0.0,0.0,0.0,0.008726646192371845,0.034208450466394424,2.545562505722046,4,1,1,17.16891,0,0.4000000059604645,-0.5,0.10000000149011612,0.011519172228872776,0.03560471534729004,2.563015937805176
71,1.458238606,0.02014128,605,16.798389,2.5740115642547607,147.4799990496649,0.034208450466394424,1.9599998354067332,-0.034208450466394424,-1.9599998354067332,-1.5446163415908813,-88.49999734009499,0.0003490658556003527,0.0,0.0,-0.0002617994307114132,0.5459249089226187,0.0,0.0,0.0,-0.5455758430670183,0.0,0.0,-0.0002617994307114132,0.0017453292780017621,0.0,0.0,0.0034906585560035243,1,1,1,17.346732,0,-0.10000000149011612,0.20000000298023224,-0.10000000149011612,-0.7820819616317749,-1.5446163415908813,1.0751228332519531,2,0,0,-1.0,0,0.0,0.0,0.0,0.0,0.0,0.0,3,0,0,12077.378476,0,0.0,0.0,0.0,0.008726646192371845,0.034208450466394424,2.545562505722046,4,1,1,17.344268,0,0.4000000059604645,-0.6000000238418579,0.10000000149011612,0.012042772024869919,0.03595378249883652,2.5740115642547607
72,1.478326798,0.020109695,606,16.536216,2.547657012939453,145.96999448833682,0.034208450466394424,1.9599998354067332,-0.034208450466394424,-1.9599998354067332,-1.544441819190979,-88.48999794315009,0.002094395133602115,0.0,0.0,-0.0002617994307114132,-1.3105395837832259,0.0,0.0,0.008678520479914974,1.312633978916828,0.0,0.0,-0.008940319910626387,0.0034906585560035243,0.0,0.0,0.0034906585560035243,1,1,1,17.467818,0,-0.10000000149011612,0.20000000298023224,-0.10000000149011612,-0.7777186632156372,-1.544441819190979,1.0604619979858398,2,0,0,-1.0,0,0.0,0.0,0.0,0.0,0.0,0.0,3,0,0,12097.50814,0,0.0,0.0,0.0,0.008726646192371845,0.034208450466394424,2.545562505722046,4,1,1,17.465194,0,0.5,-0.5,0.20000000298023224,0.008028513751924038,0.03333578631281853,2.547657012939453
73,1.49840971,0.020142688,607,16.23283,2.531076431274414,145.01999713705808,0.034208450466394424,1.9599998354067332,-0.034208450466394424,-1.9599998354067332,-1.544441819190979,-88.48999794315009,0.0003490658556003527,0.0,0.0,-0.0002617994307114132,-0.823156356541841,0.0,0.0,0.0,0.8235054223974414,0.0,0.0,-0.0002617994307114132,0.0017453292780017621,0.0,0.0,0.0034906585560035243,1,1,1,17.591912,0,-0.10000000149011612,0.20000000298023224,-0.20000000298023224,-0.7812093496322632,-1.544441819190979,1.0798351764678955,2,0,0,-1.0,0,0.0,0.0,0.0,0.0,0.0,0.0,3,0,0,12117.649675,0,0.0,0.0,0.0,0.008726646192371845,0.034208450466394424,2.545562505722046,4,1,1,17.588168,0,0.4000000059604645,-0.5,0.10000000149011612,0.009424776770174503,0.03490658476948738,2.531076431274414
74,1.518502958,0.020145375,608,16.662039,2.5467844009399414,145.91999750361234,0.034208450466394424,1.9599998354067332,-0.034208450466394424,-1.9599998354067332,-1.544267177581787,-88.47999171601602,0.0003490658556003527,0.0,0.0,-0.0002617994307114132,0.7797308149154505,0.0,0.0,0.008669067177547925,-0.7793817490598501,0.0,0.0,-0.008930866608259338,0.0017453292780017621,0.0,0.0,0.0034906585560035243,1,1,1,17.720934,0,-0.10000000149011612,0.20000000298023224,-0.20000000298023224,-0.7801621556282043,-1.544267177581787,1.0721557140350342,2,0,0,-1.0,0,0.0,0.0,0.0,0.0,0.0,0.0,3,0,0,12137.780523,0,0.0,0.0,0.0,0.008726646192371845,0.034208450466394424,2.545562505722046,4,1,1,17.717478,0,0.4000000059604645,-0.5,0.10000000149011612,0.012391837313771248,0.036826446652412415,2.5467844009399414
75,1.538578447,0.019898051,609,17.276429,2.5467844009399414,145.91999750361234,0.034208450466394424,1.9599998354067332,-0.034208450466394424,-1.9599998354067332,-1.544267177581787,-88.47999171601602,0.0003490658556003527,0.0,0.0,-0.0002617994307114132,0.0,0.0,0.0,0.0,0.0003490658556003527,0.0,0.0,-0.0002617994307114132,0.0017453292780017621,0.0,0.0,0.0034906585560035243,1,1,1,37.611817,0,-0.10000000149011612,0.20000000298023224,-0.20000000298023224,-0.7801621556282043,-1.544267177581787,1.0721557140350342,2,0,0,-1.0,0,0.0,0.0,0.0,0.0,0.0,0.0,3,0,0,12157.671406,0,0.0,0.0,0.0,0.008726646192371845,0.034208450466394424,2.545562505722046,4,1,1,37.608361,0,0.4000000059604645,-0.5,0.10000000149011612,0.012391837313771248,0.036826446652412415,2.5467844009399414
76,1.558666831,0.020540377,610,17.30462,2.549576997756958,146.08000151510905,0.034208450466394424,1.9599998354067332,-0.034208450466394424,-1.9599998354067332,-1.544267177581787,-88.47999171601602,0.0003490658556003527,0.0,0.0,-0.0002617994307114132,0.1359564538185741,0.0,0.0,0.0,-0.13560738796297375,0.0,0.0,-0.0002617994307114132,0.0017453292780017621,0.0,0.0,0.0034906585560035243,1,1,1,18.21587,0,-0.10000000149011612,0.20000000298023224,-0.20000000298023224,-0.7712609767913818,-1.544267177581787,1.0615092515945435,2,0,0,-1.0,0,0.0,0.0,0.0,0.0,0.0,0.0,3,0,0,12178.228711,0,0.0,0.0,0.0,0.008726646192371845,0.034208450466394424,2.545562505722046,4,1,1,18.212255,0,0.4000000059604645,-0.5,0.10000000149011612,0.009424776770174503,0.03473205119371414,2.549576997756958
77,1.578744367,0.019691975,611,16.502074,2.5448644161224365,145.8099904768401,0.034208450466394424,1.9599998354067332,-0.034208450466394424,-1.9599998354067332,-1.5440927743911743,-88.46999914926029,0.0003490658556003527,0.0,0.0,-0.0020071287087131753,-0.2393148292399053,0.0,0.0,0.00885656165076347,0.23966389509550565,0.0,0.0,-0.010863690359476645,0.0017453292780017621,0.0,0.0,0.0017453292780017621,1,1,1,17.856291,0,-0.10000000149011612,0.10000000149011612,-0.20000000298023224,-0.7738789916038513,-1.5440927743911743,1.0728538036346436,2,0,0,-1.0,0,0.0,0.0,0.0,0.0,0.0,0.0,3,0,0,12197.903053,0,0.0,0.0,0.0,0.008726646192371845,0.034208450466394424,2.545562505722046,4,1,1,17.852547,0,0.5,-0.5,0.10000000149011612,0.010646509006619453,0.03577924892306328,2.5448644161224365
78,1.598832847,0.020140479,612,17.391531,2.5658085346221924,147.01000007249797,0.034208450466394424,1.9599998354067332,-0.034208450466394424,-1.9599998354067332,-1.544267177581787,-88.47999171601602,0.002094395133602115,0.0,0.0,-0.0002617994307114132,1.0399017073901697,0.0,0.0,-0.008659336782049373,-1.0378073122565676,0.0,0.0,0.00839753735133796,0.0034906585560035243,0.0,0.0,0.0034906585560035243,1,1,1,17.981858,0,-0.10000000149011612,0.20000000298023224,-0.20000000298023224,-0.7672467231750488,-1.544267177581787,1.0637781620025635,2,0,0,-1.0,0,0.0,0.0,0.0,0.0,0.0,0.0,3,0,0,12218.045069,0,0.0,0.0,0.0,0.008726646192371845,0.034208450466394424,2.545562505722046,4,1,1,17.977794,0,0.5,-0.5,0.20000000298023224,0.012217304669320583,0.036651913076639175,2.5658085346221924
79,1.618916015,0.020098848,613,17.129039,2.556209087371826,146.45999225939354,0.034208450466394424,1.9599998354067332,-0.034208450466394424,-1.9599998354067332,-1.544441819190979,-88.48999794315009,0.0003490658556003527,0.0,0.0,0.0014835299773275118,-0.4776118138893439,0.0,0.0,-0.008689135277399706,0.4779608797449442,0.0,0.0,0.010172665254727218,0.0017453292780017621,0.0,0.0,0.005235987964042448,1,1,1,18.117823,0,-0.10000000149011612,0.30000001192092896,-0.30000001192092896,-0.7672467231750488,-1.544441819190979,1.0622073411941528,2,0,0,-1.0,0,0.0,0.0,0.0,0.0,0.0,0.0,3,0,0,12238.173196,0,0.0,0.0,0.0,0.008726646192371845,0.034208450466394424,2.545562505722046,4,1,1,18.11376,0,0.5,-0.5,0.10000000149011612,0.009424776770174503,0.0345575176179409,2.556209087371826
80,1.639001968,0.01998157,614,16.831924,2.5478315353393555,145.97999388528171,0.034208450466394424,1.9599998354067332,-0.034208450466394424,-1.9599998354067332,-1.544441819190979,-88.48999794315009,0.0003490658556003527,0.0,0.0,0.0014835299773275118,-0.4192639533565532,0.0,0.0,0.0,0.41961301921215355,0.0,0.0,0.0014835299773275118,0.0017453292780017621,0.0,0.0,0.005235987964042448,1,1,1,18.104672,0,-0.10000000149011612,0.30000001192092896,-0.20000000298023224,-0.7667231559753418,-1.544441819190979,1.0580185651779175,2,0,0,-1.0,0,0.0,0.0,0.0,0.0,0.0,0.0,3,0,0,12258.147822,0,0.0,0.0,0.0,0.008726646192371845,0.034208450466394424,2.545562505722046,4,1,1,18.100704,0,0.4000000059604645,-0.5,0.10000000149011612,0.009424776770174503,0.03473205119371414,2.5478315353393555
81,1.659075792,0.020006849,615,17.572552,2.541024684906006,145.589990083674,0.034208450466394424,1.9599998354067332,-0.034208450466394424,-1.9599998354067332,-1.544267177581787,-88.47999171601602,0.0003490658556003527,0.0,0.0,0.0014835299773275118,-0.3402260112699211,0.0,0.0,0.008729091182319342,0.34057507712552143,0.0,0.0,-0.00724556120499183,0.0017453292780017621,0.0,0.0,0.005235987964042448,1,1,1,18.105888,0,-0.20000000298023224,0.30000001192092896,-0.20000000298023224,-0.7737044095993042,-1.544267177581787,1.0749483108520508,2,0,0,-1.0,0,0.0,0.0,0.0,0.0,0.0,0.0,3,0,0,12278.15096,0,0.0,0.0,0.0,0.008726646192371845,0.034208450466394424,2.545562505722046,4,1,1,18.10176,0,0.4000000059604645,-0.4000000059604645,0.10000000149011612,0.010646509006619453,0.03560471534729004,2.541024684906006
82,1.679155536,0.02012688,616,17.139151,2.551671266555786,146.19999427844783,0.034208450466394424,1.9599998354067332,-0.034208450466394424,-1.9599998354067332,-1.544441819190979,-88.48999794315009,-0.0013962634224014094,0.0,0.0,0.0014835299773275118,0.5289732760259054,0.0,0.0,-0.008677033359959146,-0.5303695394483068,0.0,0.0,0.010160563337286658,0.0,0.0,0.0,0.005235987964042448,1,1,1,18.21779,0,-0.20000000298023224,0.30000001192092896,-0.20000000298023224,-0.7691665887832642,-1.544441819190979,1.0641272068023682,2,0,0,-1.0,0,0.0,0.0,0.0,0.0,0.0,0.0,3,0,0,12298.279119,0,0.0,0.0,0.0,0.008726646192371845,0.034208450466394424,2.545562505722046,4,1,1,18.213854,0,0.4000000059604645,-0.4000000059604645,0.0,0.010995574295520782,0.03577924892306328,2.551671266555786
83,1.699229265,0.020103424,617,17.687495,2.551671266555786,146.19999427844783,0.034208450466394424,1.9599998354067332,-0.034208450466394424,-1.9599998354067332,-1.544267177581787,-88.47999171601602,-0.0013962634224014094,0.0,0.0,-0.0002617994307114132,0.0,0.0,0.0,0.008687157431087089,-0.0013962634224014094,0.0,0.0,-0.008948956861798502,0.0,0.0,0.0,0.0034906585560035243,1,1,1,18.316828,0,-0.20000000298023224,0.20000000298023224,-0.20000000298023224,-0.7656759023666382,-1.544267177581787,1.0557496547698975,2,0,0,-1.0,0,0.0,0.0,0.0,0.0,0.0,0.0,3,0,0,12318.387919,0,0.0,0.0,0.0,0.008726646192371845,0.034208450466394424,2.545562505722046,4,1,1,38.322654,0,0.4000000059604645,-0.4000000059604645,0.0,0.010995574295520782,0.03577924892306328,2.551671266555786
84,1.719316977,0.020204254,618,17.287021,2.549053430557251,146.05000332427434,0.034208450466394424,1.9599998354067332,-0.034208450466394424,-1.9599998354067332,-1.544267177581787,-88.47999171601602,0.0003490658556003527,0.0,0.0,-0.0002617994307114132,-0.12956855514364232,0.0,0.0,0.0,0.12991762099924267,0.0,0.0,-0.0002617994307114132,0.0017453292780017621,0.0,0.0,0.0034906585560035243,1,1,1,18.48617,0,-0.20000000298023224,0.20000000298023224,-0.20000000298023224,-0.7672467231750488,-1.544267177581787,1.0574949979782104,2,0,0,-1.0,0,0.0,0.0,0.0,0.0,0.0,0.0,3,0,0,12338.551022,0,0.0,0.0,0.0,0.008726646192371845,0.034208450466394424,2.545562505722046,4,1,1,18.483642,0,0.5,-0.5,0.10000000149011612,0.009424776770174503,0.0345575176179409,2.549053430557251
85,1.739404561,0.019921091,619,17.860644,2.5504493713378906,146.1299848394552,0.034208450466394424,1.9599998354067332,-0.034208450466394424,-1.9599998354067332,-1.544267177581787,-88.47999171601602,0.0003490658556003527,0.0,0.0,0.0014835299773275118,0.0700735105642381,0.0,0.0,0.0,-0.06972444470863776,0.0,0.0,0.0014835299773275118,0.0017453292780017621,0.0,0.0,0.005235987964042448,1,1,1,18.412027,0,-0.20000000298023224,0.30000001192092896,-0.20000000298023224,-0.768992006778717,-1.544267177581787,1.0581930875778198,2,0,0,-1.0,0,0.0,0.0,0.0,0.0,0.0,0.0,3,0,0,12358.475089,0,0.0,0.0,0.0,0.008726646192371845,0.034208450466394424,2.545562505722046,4,1,1,18.409435,0,0.5,-0.5,0.10000000149011612,0.010821041651070118,0.03577924892306328,2.5504493713378906
86,1.759490353,0.020291613,620,17.684966,2.5504493713378906,146.1299848394552,0.034208450466394424,1.9599998354067332,-0.034208450466394424,-1.9599998354067332,-1.544267177581787,-88.47999171601602,0.0003490658556003527,0.0,0.0,0.0014835299773275118,0.0,0.0,0.0,0.0,0.0003490658556003527,0.0,0.0,0.0014835299773275118,0.0017453292780017621,0.0,0.0,0.005235987964042448,1,1,1,38.739671,0,-0.20000000298023224,0.30000001192092896,-0.20000000298023224,-0.768992006778717,-1.544267177581787,1.0581930875778198,2,0,0,-1.0,0,0.0,0.0,0.0,0.0,0.0,0.0,3,0,0,12378.802733,0,0.0,0.0,0.0,0.008726646192371845,0.034208450466394424,2.545562505722046,4,1,1,38.737079,0,0.5,-0.5,0.10000000149011612,0.010821041651070118,0.03577924892306328,2.5504493713378906
87,1.779566482,0.019925667,621,18.276093,2.5504493713378906,146.1299848394552,0.034208450466394424,1.9599998354067332,-0.034208450466394424,-1.9599998354067332,-1.544267177581787,-88.47999171601602,0.0003490658556003527,0.0,0.0,0.0014835299773275118,0.0,0.0,0.0,0.0,0.0003490658556003527,0.0,0.0,0.0014835299773275118,0.0017453292780017621,0.0,0.0,0.005235987964042448,1,1,1,58.666522,0,-0.20000000298023224,0.30000001192092896,-0.20000000298023224,-0.768992006778717,-1.544267177581787,1.0581930875778198,2,0,0,-1.0,0,0.0,0.0,0.0,0.0,0.0,0.0,3,0,0,12398.729584,0,0.0,0.0,0.0,0.008726646192371845,0.034208450466394424,2.545562505722046,4,1,1,58.66393,0,0.5,-0.5,0.10000000149011612,0.010821041651070118,0.03577924892306328,2.5504493713378906
88,1.799651474,0.020139167,622,18.007073,2.5459117889404297,145.87000051888785,0.034208450466394424,1.9599998354067332,-0.034208450466394424,-1.9599998354067332,-1.544441819190979,-88.48999794315009,0.002094395133602115,0.0,0.0,0.0014835299773275118,-0.22531132481601338,0.0,0.0,-0.008671739461314092,0.2274057199496155,0.0,0.0,0.010155269438641604,0.0034906585560035243,0.0,0.0,0.005235987964042448,1,1,1,38.798966,0,-0.10000000149011612,0.30000001192092896,-0.10000000149011612,-0.7744025588035583,-1.544441819190979,1.070585012435913,2,0,0,-1.0,0,0.0,0.0,0.0,0.0,0.0,0.0,3,0,0,12418.866415,0,0.0,0.0,0.0,0.008726646192371845,0.034208450466394424,2.545562505722046,4,1,1,38.796406,0,0.5,-0.5,0.20000000298023224,0.010646509006619453,0.03560471534729004,2.5459117889404297
89,1.819718195,0.01995709,623,17.605383,2.551671266555786,146.19999427844783,0.034208450466394424,1.9599998354067332,-0.034208450466394424,-1.9599998354067332,-1.544441819190979,-88.48999794315009,0.002094395133602115,0.0,0.0,0.0014835299773275118,0.28859305717198475,0.0,0.0,0.0,-0.28649866203838265,0.0,0.0,0.0014835299773275118,0.0034906585560035243,0.0,0.0,0.005235987964042448,1,1,1,18.753078,0,-0.20000000298023224,0.30000001192092896,0.0,-0.7712609767913818,-1.544441819190979,1.0606366395950317,2,0,0,-1.0,0,0.0,0.0,0.0,0.0,0.0,0.0,3,0,0,12438.82565,0,0.0,0.0,0.0,0.008726646192371845,0.034208450466394424,2.545562505722046,4,1,1,38.744056,0,0.5,-0.6000000238418579,0.20000000298023224,0.010995574295520782,0.03560471534729004,2.551671266555786
90,1.839802099,0.020043009,624,18.238333,2.553591251373291,146.31000130522006,0.034208450466394424,1.9599998354067332,-0.034208450466394424,-1.9599998354067332,-1.544267177581787,-88.47999171601602,0.002094395133602115,0.0,0.0,0.0014835299773275118,0.09579324229734582,0.0,0.0,0.008713342851459804,-0.0936988471637437,0.0,0.0,-0.007229812874132293,0.0034906585560035243,0.0,0.0,0.005235987964042448,1,1,1,18.7997,0,-0.20000000298023224,0.30000001192092896,0.0,-0.776496946811676,-1.544267177581787,1.0730284452438354,2,0,0,-1.0,0,0.0,0.0,0.0,0.0,0.0,0.0,3,0,0,12458.864466,0,0.0,0.0,0.0,0.008726646192371845,0.034208450466394424,2.545562505722046,4,1,1,38.789206,0,0.4000000059604645,-0.5,0.20000000298023224,0.01012290921062231,0.03490658476948738,2.553591251373291
91,1.859875251,0.020075489,625,17.646183,2.5457372665405273,145.86000112194293,0.034208450466394424,1.9599998354067332,-0.034208450466394424,-1.9599998354067332,-1.5440927743911743,-88.46999914926029,0.002094395133602115,0.0,0.0,0.003228859125292111,-0.3912225915275923,0.0,0.0,0.008687369488872375,0.3933169866611944,0.0,0.0,-0.005458510363580265,0.0034906585560035243,0.0,0.0,0.0069813171120070485,1,1,1,18.866548,0,-0.20000000298023224,0.4000000059604645,-0.20000000298023224,-0.7820819616317749,-1.5440927743911743,1.0805333852767944,2,0,0,-1.0,0,0.0,0.0,0.0,0.0,0.0,0.0,3,0,0,12478.933427,0,0.0,0.0,0.0,0.008726646192371845,0.034208450466394424,2.545562505722046,4,1,1,18.86386,0,0.4000000059604645,-0.4000000059604645,0.20000000298023224,0.01047197449952364,0.03525565192103386,2.5457372665405273
92,1.879964435,0.020075136,626,18.393659,2.548704147338867,146.02999087000623,0.034208450466394424,1.9599998354067332,-0.034208450466394424,-1.9599998354067332,-1.5440927743911743,-88.46999914926029,-0.0013962634224014094,0.0,0.0,0.003228859125292111,0.14778882685227357,0.0,0.0,0.0,-0.14918509027467497,0.0,0.0,0.003228859125292111,0.0,0.0,0.0,0.0069813171120070485,1,1,1,18.95557,0,-0.10000000149011612,0.4000000059604645,-0.30000001192092896,-0.782256543636322,-1.5440927743911743,1.0786134004592896,2,0,0,-1.0,0,0.0,0.0,0.0,0.0,0.0,0.0,3,0,0,12499.009811,0,0.0,0.0,0.0,0.008726646192371845,0.034208450466394424,2.545562505722046,4,1,1,18.951314,0,0.4000000059604645,-0.4000000059604645,0.0,0.010995574295520782,0.03577924892306328,2.548704147338867
93,1.900040436,0.020137599,627,17.964066,2.5457372665405273,145.86000112194293,0.034208450466394424,1.9599998354067332,-0.034208450466394424,-1.9599998354067332,-1.544267177581787,-88.47999171601602,0.0003490658556003527,0.0,0.0,0.0014835299773275118,-0.14733041403495242,0.0,0.0,-0.008660575206249414,0.14767947989055277,0.0,0.0,0.010144105183576925,0.0017453292780017621,0.0,0.0,0.005235987964042448,1,1,1,19.086417,0,0.0,0.30000001192092896,-0.4000000059604645,-0.7813839316368103,-1.544267177581787,1.0779153108596802,2,0,0,-1.0,0,0.0,0.0,0.0,0.0,0.0,0.0,3,0,0,12519.153843,0,0.0,0.0,0.0,0.008726646192371845,0.034208450466394424,2.545562505722046,4,1,1,19.081937,0,0.4000000059604645,-0.5,0.10000000149011612,0.010297441855072975,0.0354301817715168,2.5457372665405273
94,1.92012658,0.020011618,628,18.588024,2.552544116973877,146.25000492355068,0.034208450466394424,1.9599998354067332,-0.034208450466394424,-1.9599998354067332,-1.544267177581787,-88.47999171601602,0.0003490658556003527,0.0,0.0,0.0014835299773275118,0.34014493147678565,0.0,0.0,0.0,-0.3397958656211853,0.0,0.0,0.0014835299773275118,0.0017453292780017621,0.0,0.0,0.005235987964042448,1,1,1,19.091536,0,0.0,0.30000001192092896,-0.30000001192092896,-0.7845255136489868,-1.544267177581787,1.0754718780517578,2,0,0,-1.0,0,0.0,0.0,0.0,0.0,0.0,0.0,3,0,0,12539.164244,0,0.0,0.0,0.0,0.008726646192371845,0.034208450466394424,2.545562505722046,4,1,1,19.088944,0,0.4000000059604645,-0.6000000238418579,0.10000000149011612,0.011519172228872776,0.0363028459250927,2.552544116973877
95,1.940202868,0.020111008,629,18.317917,2.5457372665405273,145.86000112194293,0.034208450466394424,1.9599998354067332,-0.034208450466394424,-1.9599998354067332,-1.544441819190979,-88.48999794315009,-0.0013962634224014094,0.0,0.0,-0.0002617994307114132,-0.3384639115726874,0.0,0.0,-0.008683881444027795,0.337067648150286,0.0,0.0,0.008422082013316382,0.0,0.0,0.0,0.0034906585560035243,1,1,1,19.192782,0,-0.10000000149011612,0.20000000298023224,-0.30000001192092896,-0.7836527824401855,-1.544441819190979,1.0796606540679932,2,0,0,-1.0,0,0.0,0.0,0.0,0.0,0.0,0.0,3,0,0,12559.264404,0,0.0,0.0,0.0,0.008726646192371845,0.034208450466394424,2.545562505722046,4,1,1,19.190318,0,0.30000001192092896,-0.6000000238418579,0.0,0.00890117883682251,0.033684853464365005,2.5457372665405273
96,1.960287349,0.0200528,630,18.54412,2.5441665649414062,145.77000654943885,0.034208450466394424,1.9599998354067332,-0.034208450466394424,-1.9599998354067332,-1.5446163415908813,-88.49999734009499,0.0003490658556003527,0.0,0.0,-0.0002617994307114132,-0.07832829326184343,0.0,0.0,-0.00870314369576038,0.07867735911744378,0.0,0.0,0.008441344265048967,0.0017453292780017621,0.0,0.0,0.0034906585560035243,1,1,1,19.260462,0,-0.10000000149011612,0.20000000298023224,-0.20000000298023224,-0.7838273644447327,-1.5446163415908813,1.0801842212677002,2,0,0,-1.0,0,0.0,0.0,0.0,0.0,0.0,0.0,3,0,0,12579.328437,0,0.0,0.0,0.0,0.008726646192371845,0.034208450466394424,2.545562505722046,4,1,1,19.257294,0,0.30000001192092896,-0.5,0.10000000149011612,0.011868239380419254,0.0363028459250927,2.5441665649414062
97,1.980363029,0.02012208,631,18.308669,2.5478315353393555,145.97999388528171,0.034208450466394424,1.9599998354067332,-0.034208450466394424,-1.9599998354067332,-1.5446163415908813,-88.49999734009499,0.0003490658556003527,0.0,0.0,-0.0002617994307114132,0.18213675713192765,0.0,0.0,0.0,-0.1817876912763273,0.0,0.0,-0.0002617994307114132,0.0017453292780017621,0.0,0.0,0.0034906585560035243,1,1,1,19.382827,0,-0.20000000298023224,0.20000000298023224,-0.20000000298023224,-0.7901105284690857,-1.5446163415908813,1.0822786092758179,2,0,0,-1.0,0,0.0,0.0,0.0,0.0,0.0,0.0,3,0,0,12599.447316,0,0.0,0.0,0.0,0.008726646192371845,0.034208450466394424,2.545562505722046,4,1,1,19.380203,0,0.4000000059604645,-0.4000000059604645,0.10000000149011612,0.009948376566171646,0.0345575176179409,2.5478315353393555
98,2.000447349,0.020102784,632,18.979954,2.54207181930542,145.64998646534337,0.034208450466394424,1.9599998354067332,-0.034208450466394424,-1.9599998354067332,-1.5451399087905884,-88.52999553092968,-0.0031415927004031716,0.0,0.0,-0.0002617994307114132,-0.28651335227675667,0.0,0.0,-0.026044512029131453,0.2833717595763535,0.0,0.0,0.02578271259842004,-0.0017453292780017621,0.0,0.0,0.0034906585560035243,1,1,1,19.493577,0,-0.20000000298023224,0.20000000298023224,-0.10000000149011612,-0.7808602452278137,-1.5451399087905884,1.0723302364349365,2,0,0,-1.0,0,0.0,0.0,0.0,0.0,0.0,0.0,3,0,0,12619.5469,0,0.0,0.0,0.0,0.008726646192371845,0.034208450466394424,2.545562505722046,4,1,1,19.489833,0,0.5,-0.4000000059604645,-0.10000000149011612,0.010821041651070118,0.03577924892306328,2.54207181930542
99,2.020522134,0.020049409,633,18.303741,2.5558602809906006,146.4400071258821,0.034208450466394424,1.9599998354067332,-0.034208450466394424,-1.9599998354067332,-1.5446163415908813,-88.49999734009499,-0.0013962634224014094,0.0,0.0,-0.0002617994307114132,0.6877240962654143,0.0,0.0,0.02611384703195148,-0.6891203596878157,0.0,0.0,-0.026375646462662893,0.0,0.0,0.0,0.0034906585560035243,1,1,1,19.540393,0,-0.20000000298023224,0.20000000298023224,-0.20000000298023224,-0.7876670360565186,-1.5446163415908813,1.088561773300171,2,0,0,-1.0,0,0.0,0.0,0.0,0.0,0.0,0.0,3,0,0,12639.600469,0,0.0,0.0,0.0,0.008726646192371845,0.034208450466394424,2.545562505722046,4,1,1,19.536777,0,0.5,-0.5,0.0,0.011344639584422112,0.03595378249883652,2.5558602809906006
100,2.040604406,0.020062688,634,19.012241,2.570695400238037,147.2899968473335,0.034208450466394424,1.9599998354067332,-0.034208450466394424,-1.9599998354067332,-1.5446163415908813,-88.49999734009499,-0.0013962634224014094,0.0,0.0,-0.0002617994307114132,0.7394382670675298,0.0,0.0,0.0,-0.7408345304899312,0.0,0.0,-0.0002617994307114132,0.0,0.0,0.0,0.0034906585560035243,1,1,1,19.615656,0,-0.20000000298023224,0.20000000298023224,-0.20000000298023224,-0.7824310660362244,-1.5446163415908813,1.0815805196762085,2,0,0,-1.0,0,0.0,0.0,0.0,0.0,0.0,0.0,3,0,0,12659.661238,0,0.0,0.0,0.0,0.008726646192371845,0.034208450466394424,2.545562505722046,4,1,1,19.613192,0,0.4000000059604645,-0.5,0.0,0.012042772024869919,0.03612831234931946,2.570695400238037
101,2.060681078,0.020103392,635,18.765205,2.551147699356079,146.16999608761313,0.034208450466394424,1.9599998354067332,-0.034208450466394424,-1.9599998354067332,-1.544441819190979,-88.48999794315009,0.0003490658556003527,0.0,0.0,-0.0002617994307114132,-0.9723583404212586,0.0,0.0,0.008681241449320778,0.9727074062768589,0.0,0.0,-0.00894304088003219,0.0017453292780017621,0.0,0.0,0.0034906585560035243,1,1,1,19.723206,0,-0.20000000298023224,0.20000000298023224,-0.30000001192092896,-0.7756242752075195,-1.544441819190979,1.0716321468353271,2,0,0,-1.0,0,0.0,0.0,0.0,0.0,0.0,0.0,3,0,0,12679.765782,0,0.0,0.0,0.0,0.008726646192371845,0.034208450466394424,2.545562505722046,4,1,1,19.719559,0,0.4000000059604645,-0.4000000059604645,0.10000000149011612,0.007853981107473373,0.03316125646233559,2.551147699356079
102,2.080765462,0.020073697,636,19.068561,2.5424211025238037,145.66999891961152,0.034208450466394424,1.9599998354067332,-0.034208450466394424,-1.9599998354067332,-1.5440927743911743,-88.46999914926029,0.002094395133602115,0.0,0.0,-0.0002617994307114132,-0.4347279343847518,0.0,0.0,0.017388167202318908,0.4368223295183539,0.0,0.0,-0.017649966633030322,0.0034906585560035243,0.0,0.0,0.0034906585560035243,1,1,1,19.770533,0,-0.10000000149011612,0.20000000298023224,-0.4000000059604645,-0.7815583944320679,-1.5440927743911743,1.0815805196762085,2,0,0,-1.0,0,0.0,0.0,0.0,0.0,0.0,0.0,3,0,0,12699.838742,0,0.0,0.0,0.0,0.008726646192371845,0.034208450466394424,2.545562505722046,4,1,1,19.766085,0,0.5,-0.5,0.20000000298023224,0.010646509006619453,0.03577924892306328,2.5424211025238037
103,2.100840823,0.020120735,637,18.653207,2.551147699356079,146.16999608761313,0.034208450466394424,1.9599998354067332,-0.034208450466394424,-1.9599998354067332,-1.544267177581787,-88.47999171601602,0.002094395133602115,0.0,0.0,-0.0002617994307114132,0.4337116329137773,0.0,0.0,-0.008667833983837716,-0.4316172377801752,0.0,0.0,0.008406034553126303,0.0034906585560035243,0.0,0.0,0.0034906585560035243,1,1,1,19.89722,0,-0.10000000149011612,0.20000000298023224,-0.30000001192092896,-0.775449812412262,-1.544267177581787,1.0723302364349365,2,0,0,-1.0,0,0.0,0.0,0.0,0.0,0.0,0.0,3,0,0,12719.961366,0,0.0,0.0,0.0,0.008726646192371845,0.034208450466394424,2.545562505722046,4,1,1,19.894628,0,0.4000000059604645,-0.5,0.20000000298023224,0.010821041651070118,0.03560471534729004,2.551147699356079
104,2.120925143,0.020094688,638,19.321356,2.569124698638916,147.20000227482942,0.034208450466394424,1.9599998354067332,-0.034208450466394424,-1.9599998354067332,-1.544441819190979,-88.48999794315009,0.002094395133602115,0.0,0.0,-0.0002617994307114132,0.8946145012471413,0.0,0.0,-0.00869093410118607,-0.8925201061135392,0.0,0.0,0.008429134670474658,0.0034906585560035243,0.0,0.0,0.0034906585560035243,1,1,1,19.979778,0,-0.10000000149011612,0.20000000298023224,-0.30000001192092896,-0.7709118723869324,-1.544441819190979,1.0655235052108765,2,0,0,-1.0,0,0.0,0.0,0.0,0.0,0.0,0.0,3,0,0,12740.053974,0,0.0,0.0,0.0,0.008726646192371845,0.034208450466394424,2.545562505722046,4,1,1,19.97709,0,0.4000000059604645,-0.5,0.20000000298023224,0.01326450239866972,0.037175510078668594,2.569124698638916
105,2.140999735,0.020047585,639,18.911571,2.5577800273895264,146.55000049227596,0.034208450466394424,1.9599998354067332,-0.034208450466394424,-1.9599998354067332,-1.5446163415908813,-88.49999734009499,0.0003490658556003527,0.0,0.0,-0.0020071287087131753,-0.5658871754073944,0.0,0.0,-0.008705407653956512,0.5662362412629948,0.0,0.0,0.006698278945243337,0.0017453292780017621,0.0,0.0,0.0017453292780017621,1,1,1,20.064961,0,-0.10000000149011612,0.10000000149011612,-0.30000001192092896,-0.7745770812034607,-1.5446163415908813,1.0663961172103882,2,0,0,-1.0,0,0.0,0.0,0.0,0.0,0.0,0.0,3,0,0,12760.100855,0,0.0,0.0,0.0,0.008726646192371845,0.034208450466394424,2.545562505722046,4,1,1,20.060193,0,0.5,-0.5,0.10000000149011612,0.008203047327697277,0.03333578631281853,2.5577800273895264
106,2.161084984,0.020061601,640,19.486954,2.547657012939453,145.96999448833682,0.034208450466394424,1.9599998354067332,-0.034208450466394424,-1.9599998354067332,-1.544441819190979,-88.48999794315009,0.0003490658556003527,0.0,0.0,-0.0002617994307114132,-0.5045965399308482,0.0,0.0,0.008699325637188365,0.5049456057864485,0.0,0.0,-0.008961125067899778,0.0017453292780017621,0.0,0.0,0.0034906585560035243,1,1,1,20.08608,0,-0.10000000149011612,0.20000000298023224,-0.20000000298023224,-0.7695156931877136,-1.544441819190979,1.0611602067947388,2,0,0,-1.0,0,0.0,0.0,0.0,0.0,0.0,0.0,3,0,0,12780.158039,0,0.0,0.0,0.0,0.008726646192371845,0.034208450466394424,2.545562505722046,4,1,1,20.083552,0,0.4000000059604645,-0.4000000059604645,0.10000000149011612,0.010297441855072975,0.0354301817715168,2.547657012939453
107,2.181161048,0.0200832,641,19.0748,2.547657012939453,145.96999448833682,0.034208450466394424,1.9599998354067332,-0.034208450466394424,-1.9599998354067332,-1.544441819190979,-88.48999794315009,0.0003490658556003527,0.0,0.0,-0.0002617994307114132,0.0,0.0,0.0,0.0,0.0003490658556003527,0.0,0.0,-0.0002617994307114132,0.0017453292780017621,0.0,0.0,0.0034906585560035243,1,1,1,20.170526,0,-0.20000000298023224,0.20000000298023224,-0.20000000298023224,-0.7712609767913818,-1.544441819190979,1.074599266052246,2,0,0,-1.0,0,0.0,0.0,0.0,0.0,0.0,0.0,3,0,0,12800.242199,0,0.0,0.0,0.0,0.008726646192371845,0.034208450466394424,2.545562505722046,4,1,1,40.167712,0,0.4000000059604645,-0.4000000059604645,0.10000000149011612,0.010297441855072975,0.0354301817715168,2.547657012939453
108,2.2012478,0.020124928,642,19.777701,2.5387556552886963,145.45998426301196,0.034208450466394424,1.9599998354067332,-0.034208450466394424,-1.9599998354067332,-1.5447908639907837,-88.50999673703988,0.0003490658556003527,0.0,0.0,0.0014835299773275118,-0.44230506816008663,0.0,0.0,-0.017343903034320794,0.442654134015687,0.0,0.0,0.018827433011648305,0.0017453292780017621,0.0,0.0,0.005235987964042448,1,1,1,20.296797,0,-0.20000000298023224,0.30000001192092896,-0.10000000149011612,-0.7665485739707947,-1.5447908639907837,1.0524334907531738,2,0,0,-1.0,0,0.0,0.0,0.0,0.0,0.0,0.0,3,0,0,12820.367607,0,0.0,0.0,0.0,0.008726646192371845,0.034208450466394424,2.545562505722046,4,1,1,20.293949,0,0.4000000059604645,-0.5,0.10000000149011612,0.011344639584422112,0.036477379500865936,2.5387556552886963
109,2.221323577,0.020070304,643,19.22011,2.5432937145233154,145.71999590433603,0.034208450466394424,1.9599998354067332,-0.034208450466394424,-1.9599998354067332,-1.544441819190979,-88.48999794315009,0.0003490658556003527,0.0,0.0,0.0014835299773275118,0.22610814637482027,0.0,0.0,0.01739110677171046,-0.22575908051921992,0.0,0.0,-0.015907576794382948,0.0017453292780017621,0.0,0.0,0.005235987964042448,1,1,1,20.383451,0,-0.10000000149011612,0.30000001192092896,0.0,-0.7698647379875183,-1.544441819190979,1.0622073411941528,2,0,0,-1.0,0,0.0,0.0,0.0,0.0,0.0,0.0,3,0,0,12840.448119,0,0.0,0.0,0.0,0.008726646192371845,0.034208450466394424,2.545562505722046,4,1,1,20.381019,0,0.4000000059604645,-0.5,0.10000000149011612,0.009773843921720982,0.03490658476948738,2.5432937145233154
110,2.241410649,0.020008322,644,19.934947,2.5387556552886963,145.45998426301196,0.034208450466394424,1.9599998354067332,-0.034208450466394424,-1.9599998354067332,-1.5447908639907837,-88.50999673703988,0.0003490658556003527,0.0,0.0,0.0014835299773275118,-0.22680858667804032,0.0,0.0,-0.01744498113358469,0.22715765253364067,0.0,0.0,0.0189285111109122,0.0017453292780017621,0.0,0.0,0.005235987964042448,1,1,1,20.381724,0,-0.20000000298023224,0.30000001192092896,-0.10000000149011612,-0.7703883051872253,-1.5447908639907837,1.0576695203781128,2,0,0,-1.0,0,0.0,0.0,0.0,0.0,0.0,0.0,3,0,0,12860.450233,0,0.0,0.0,0.0,0.008726646192371845,0.034208450466394424,2.545562505722046,4,1,1,20.378972,0,0.30000001192092896,-0.5,0.10000000149011612,0.011170106939971447,0.0363028459250927,2.5387556552886963
111,2.262491209,0.022158335,646,1.219021,2.5464353561401367,145.89999870972252,0.034208450466394424,1.9599998354067332,-0.034208450466394424,-1.9599998354067332,-1.544441819190979,-88.48999794315009,0.0003490658556003527,0.0,0.0,0.0014835299773275118,0.34658293826862124,0.0,0.0,0.015752302679993217,-0.3462338724130209,0.0,0.0,-0.014268772702665706,0.0017453292780017621,0.0,0.0,0.005235987964042448,1,1,1,2.549303,0,-0.20000000298023224,0.30000001192092896,-0.20000000298023224,-0.7709118723869324,-1.544441819190979,1.0576695203781128,2,0,0,-1.0,0,0.0,0.0,0.0,0.0,0.0,0.0,3,0,0,12882.615928,0,0.0,0.0,0.0,0.008726646192371845,0.034208450466394424,2.545562505722046,4,1,1,2.546807,0,0.30000001192092896,-0.5,0.10000000149011612,0.009075711481273174,0.034033920615911484,2.5464353561401367
112,2.282575561,0.019060656,647,0.826835,2.5542891025543213,146.34998523262132,0.034208450466394424,1.9599998354067332,-0.034208450466394424,-1.9599998354067332,-1.543918251991272,-88.4599997523154,0.0003490658556003527,0.0,0.0,0.0014835299773275118,0.41203967031274114,0.0,0.0,0.027468477459906483,-0.4116906044571408,0.0,0.0,-0.02598494748257897,0.0017453292780017621,0.0,0.0,0.005235987964042448,1,1,1,1.611463,0,-0.20000000298023224,0.30000001192092896,-0.20000000298023224,-0.7812093496322632,-1.543918251991272,1.0726792812347412,2,0,0,-1.0,0,0.0,0.0,0.0,0.0,0.0,0.0,3,0,0,12901.667657,0,0.0,0.0,0.0,0.008726646192371845,0.034208450466394424,2.545562505722046,4,1,1,1.607687,0,0.30000001192092896,-0.5,0.10000000149011612,0.011868239380419254,0.0363028459250927,2.5542891025543213
113,2.30264881,0.020147488,648,0.665398,2.55952525138855,146.64999446172496,0.034208450466394424,1.9599998354067332,-0.034208450466394424,-1.9599998354067332,-1.5440927743911743,-88.46999914926029,0.0003490658556003527,0.0,0.0,0.0014835299773275118,0.25989090224193284,0.0,0.0,-0.008662241163878284,-0.2595418363863325,0.0,0.0,0.010145771141205795,0.0017453292780017621,0.0,0.0,0.005235987964042448,1,1,1,1.786852,0,-0.20000000298023224,0.30000001192092896,-0.10000000149011612,-0.7703883051872253,-1.5440927743911743,1.0578440427780151,2,0,0,-1.0,0,0.0,0.0,0.0,0.0,0.0,0.0,3,0,0,12921.825096,0,0.0,0.0,0.0,0.008726646192371845,0.034208450466394424,2.545562505722046,4,1,1,1.782884,0,0.4000000059604645,-0.5,0.10000000149011612,0.01012290921062231,0.03508111834526062,2.55952525138855
114,2.322734186,0.019969986,649,1.130414,2.5473079681396484,145.94999569444704,0.034208450466394424,1.9599998354067332,-0.034208450466394424,-1.9599998354067332,-1.544267177581787,-88.47999171601602,0.0003490658556003527,0.0,0.0,0.0014835299773275118,-0.6117822640887864,0.0,0.0,-0.008733265542238886,0.6121313299443868,0.0,0.0,0.010216795519566398,0.0017453292780017621,0.0,0.0,0.005235987964042448,1,1,1,1.720901,0,-0.20000000298023224,0.30000001192092896,-0.10000000149011612,-0.7660250067710876,-1.544267177581787,1.0550514459609985,2,0,0,-1.0,0,0.0,0.0,0.0,0.0,0.0,0.0,3,0,0,12941.787114,0,0.0,0.0,0.0,0.008726646192371845,0.034208450466394424,2.545562505722046,4,1,1,1.716997,0,0.4000000059604645,-0.6000000238418579,0.10000000149011612,0.009250244125723839,0.03490658476948738,2.5473079681396484
115,2.342812522,0.020150559,650,0.880338,2.5473079681396484,145.94999569444704,0.034208450466394424,1.9599998354067332,-0.034208450466394424,-1.9599998354067332,-1.544267177581787,-88.47999171601602,0.0003490658556003527,0.0,0.0,0.0014835299773275118,0.0,0.0,0.0,0.0,0.0003490658556003527,0.0,0.0,0.0014835299773275118,0.0017453292780017621,0.0,0.0,0.005235987964042448,1,1,1,1.863906,0,-0.30000001192092896,0.30000001192092896,-0.20000000298023224,-0.7628833651542664,-1.544267177581787,1.0466738939285278,2,0,0,-1.0,0,0.0,0.0,0.0,0.0,0.0,0.0,3,0,0,12961.942185,0,0.0,0.0,0.0,0.008726646192371845,0.034208450466394424,2.545562505722046,4,1,1,21.872068,0,0.4000000059604645,-0.6000000238418579,0.10000000149011612,0.009250244125723839,0.03490658476948738,2.5473079681396484
116,2.362898155,0.020021281,651,1.526024,2.5473079681396484,145.94999569444704,0.034208450466394424,1.9599998354067332,-0.034208450466394424,-1.9599998354067332,-1.544267177581787,-88.47999171601602,0.0003490658556003527,0.0,0.0,0.0014835299773275118,0.0,0.0,0.0,0.0,0.0003490658556003527,0.0,0.0,0.0014835299773275118,0.0017453292780017621,0.0,0.0,0.005235987964042448,1,1,1,21.879587,0,-0.30000001192092896,0.30000001192092896,-0.20000000298023224,-0.7628833651542664,-1.544267177581787,1.0466738939285278,2,0,0,-1.0,0,0.0,0.0,0.0,0.0,0.0,0.0,3,0,0,12981.957866,0,0.0,0.0,0.0,0.008726646192371845,0.034208450466394424,2.545562505722046,4,1,1,41.887749,0,0.4000000059604645,-0.6000000238418579,0.10000000149011612,0.009250244125723839,0.03490658476948738,2.5473079681396484
117,2.382974859,0.020156415,652,1.332939,2.536661386489868,145.33999149967318,0.034208450466394424,1.9599998354067332,-0.034208450466394424,-1.9599998354067332,-1.544267177581787,-88.47999171601602,0.0003490658556003527,0.0,0.0,0.0014835299773275118,-0.5281981765993741,0.0,0.0,0.0,0.5285472424549744,0.0,0.0,0.0014835299773275118,0.0017453292780017621,0.0,0.0,0.005235987964042448,1,1,1,2.035135,0,-0.20000000298023224,0.30000001192092896,-0.30000001192092896,-0.7733553647994995,-1.544267177581787,1.0672688484191895,2,0,0,-1.0,0,0.0,0.0,0.0,0.0,0.0,0.0,3,0,0,13002.113897,0,0.0,0.0,0.0,0.008726646192371845,0.034208450466394424,2.545562505722046,4,1,1,2.030655,0,0.4000000059604645,-0.6000000238418579,0.10000000149011612,0.011519172228872776,0.03612831234931946,2.536661386489868
118,2.403062571,0.019976354,653,0.995408,2.5614449977874756,146.75998782811885,0.034208450466394424,1.9599998354067332,-0.034208450466394424,-1.9599998354067332,-1.544267177581787,-88.47999171601602,0.0003490658556003527,0.0,0.0,0.0014835299773275118,1.2406473822804411,0.0,0.0,0.0,-1.2402983164248407,0.0,0.0,0.0014835299773275118,0.0017453292780017621,0.0,0.0,0.005235987964042448,1,1,1,2.032575,0,-0.20000000298023224,0.30000001192092896,-0.20000000298023224,-0.7717845439910889,-1.544267177581787,1.0574949979782104,2,0,0,-1.0,0,0.0,0.0,0.0,0.0,0.0,0.0,3,0,0,13022.103723,0,0.0,0.0,0.0,0.008726646192371845,0.034208450466394424,2.545562505722046,4,1,1,2.029312,0,0.30000001192092896,-0.6000000238418579,0.10000000149011612,0.013439035043120384,0.037000976502895355,2.5614449977874756
119,2.423140939,0.020170591,654,1.853923,2.5614449977874756,146.75998782811885,0.034208450466394424,1.9599998354067332,-0.034208450466394424,-1.9599998354067332,-1.544267177581787,-88.47999171601602,0.0003490658556003527,0.0,0.0,0.0014835299773275118,0.0,0.0,0.0,0.0,0.0003490658556003527,0.0,0.0,0.0014835299773275118,0.0017453292780017621,0.0,0.0,0.005235987964042448,1,1,1,22.19235,0,-0.20000000298023224,0.30000001192092896,-0.20000000298023224,-0.7717845439910889,-1.544267177581787,1.0574949979782104,2,0,0,-1.0,0,0.0,0.0,0.0,0.0,0.0,0.0,3,0,0,13042.263498,0,0.0,0.0,0.0,0.008726646192371845,0.034208450466394424,2.545562505722046,4,1,1,22.189087,0,0.30000001192092896,-0.6000000238418579,0.10000000149011612,0.013439035043120384,0.037000976502895355,2.5614449977874756
120,2.443224684,0.020038753,655,1.305867,2.54818058013916,145.99999267917153,0.034208450466394424,1.9599998354067332,-0.034208450466394424,-1.9599998354067332,-1.544267177581787,-88.47999171601602,0.0003490658556003527,0.0,0.0,0.0014835299773275118,-0.6619382777119629,0.0,0.0,0.0,0.6622873435675632,0.0,0.0,0.0014835299773275118,0.0017453292780017621,0.0,0.0,0.005235987964042448,1,1,1,2.246652,0,-0.20000000298023224,0.30000001192092896,-0.20000000298023224,-0.772482693195343,-1.544267177581787,1.0602874755859375,2,0,0,-1.0,0,0.0,0.0,0.0,0.0,0.0,0.0,3,0,0,13062.311723,0,0.0,0.0,0.0,0.008726646192371845,0.034208450466394424,2.545562505722046,4,1,1,2.244188,0,0.4000000059604645,-0.5,0.10000000149011612,0.009948376566171646,0.03473205119371414,2.54818058013916
121,2.463303532,0.020451738,656,1.382314,2.5488786697387695,146.03999026695112,0.034208450466394424,1.9599998354067332,-0.034208450466394424,-1.9599998354067332,-1.543918251991272,-88.4599997523154,0.0003490658556003527,0.0,0.0,0.0014835299773275118,0.03413350980779115,0.0,0.0,0.017060926094160638,-0.0337844439521908,0.0,0.0,-0.015577396116833127,0.0017453292780017621,0.0,0.0,0.005235987964042448,1,1,1,2.689654,0,-0.20000000298023224,0.30000001192092896,-0.20000000298023224,-0.7716100215911865,-1.543918251991272,1.0686650276184082,2,0,0,-1.0,0,0.0,0.0,0.0,0.0,0.0,0.0,3,0,0,13082.758214,0,0.0,0.0,0.0,0.008726646192371845,0.034208450466394424,2.545562505722046,4,1,1,2.685782,0,0.4000000059604645,-0.5,0.10000000149011612,0.010297441855072975,0.03490658476948738,2.5488786697387695
122,2.483389292,0.01973239,657,1.851426,2.5462608337402344,145.88999931277763,0.034208450466394424,1.9599998354067332,-0.034208450466394424,-1.9599998354067332,-1.5446163415908813,-88.49999734009499,0.0003490658556003527,0.0,0.0,0.0014835299773275118,-0.13266695005192763,0.0,0.0,-0.0353778533471807,0.13301601590752798,0.0,0.0,0.036861383324508216,0.0017453292780017621,0.0,0.0,0.005235987964042448,1,1,1,2.430553,0,-0.20000000298023224,0.30000001192092896,-0.20000000298023224,-0.756425678730011,-1.5446163415908813,1.0440559387207031,2,0,0,-1.0,0,0.0,0.0,0.0,0.0,0.0,0.0,3,0,0,13102.486347,0,0.0,0.0,0.0,0.008726646192371845,0.034208450466394424,2.545562505722046,4,1,1,2.426521,0,0.4000000059604645,-0.5,0.10000000149011612,0.011344639584422112,0.03595378249883652,2.5462608337402344
123,2.503465389,0.020053633,658,1.358379,2.552544116973877,146.25000492355068,0.034208450466394424,1.9599998354067332,-0.034208450466394424,-1.9599998354067332,-1.544441819190979,-88.48999794315009,0.0003490658556003527,0.0,0.0,0.0014835299773275118,0.3133239365476858,0.0,0.0,0.008702782179286104,-0.31297487069208546,0.0,0.0,-0.007219252201958593,0.0017453292780017621,0.0,0.0,0.005235987964042448,1,1,1,2.475864,0,-0.20000000298023224,0.30000001192092896,-0.20000000298023224,-0.7616616487503052,-1.544441819190979,1.0471975803375244,2,0,0,-1.0,0,0.0,0.0,0.0,0.0,0.0,0.0,3,0,0,13122.538252,0,0.0,0.0,0.0,0.008726646192371845,0.034208450466394424,2.545562505722046,4,1,1,2.473208,0,0.30000001192092896,-0.4000000059604645,0.10000000149011612,0.011170106939971447,0.03577924892306328,2.552544116973877
124,2.523539053,0.020074144,659,2.205021,2.552544116973877,146.25000492355068,0.034208450466394424,1.9599998354067332,-0.034208450466394424,-1.9599998354067332,-1.544441819190979,-88.48999794315009,0.0003490658556003527,0.0,0.0,0.0014835299773275118,0.0,0.0,0.0,0.0,0.0003490658556003527,0.0,0.0,0.0014835299773275118,0.0017453292780017621,0.0,0.0,0.005235987964042448,1,1,1,22.550169,0,-0.20000000298023224,0.30000001192092896,-0.20000000298023224,-0.7616616487503052,-1.544441819190979,1.0471975803375244,2,0,0,-1.0,0,0.0,0.0,0.0,0.0,0.0,0.0,3,0,0,13142.612557,0,0.0,0.0,0.0,0.008726646192371845,0.034208450466394424,2.545562505722046,4,1,1,22.547513,0,0.30000001192092896,-0.4000000059604645,0.10000000149011612,0.011170106939971447,0.03577924892306328,2.552544116973877
125,2.543613805,0.02008992,660,1.935681,2.5462608337402344,145.88999931277763,0.034208450466394424,1.9599998354067332,-0.034208450466394424,-1.9599998354067332,-1.544441819190979,-88.48999794315009,-0.0013962634224014094,0.0,0.0,0.0014835299773275118,-0.3127580017064567,0.0,0.0,0.0,0.3113617382840553,0.0,0.0,0.0014835299773275118,0.0,0.0,0.0,0.005235987964042448,1,1,1,2.64735,0,-0.20000000298023224,0.30000001192092896,-0.10000000149011612,-0.7600908875465393,-1.544441819190979,1.0461503267288208,2,0,0,-1.0,0,0.0,0.0,0.0,0.0,0.0,0.0,3,0,0,13162.704653,0,0.0,0.0,0.0,0.008726646192371845,0.034208450466394424,2.545562505722046,4,1,1,2.64303,0,0.30000001192092896,-0.4000000059604645,0.0,0.010297441855072975,0.03525565192103386,2.5462608337402344
126,2.563700398,0.020248158,661,1.608006,2.5467844009399414,145.91999750361234,0.034208450466394424,1.9599998354067332,-0.034208450466394424,-1.9599998354067332,-1.544441819190979,-88.48999794315009,-0.0013962634224014094,0.0,0.0,-0.0002617994307114132,0.025857522432758143,0.0,0.0,0.0,-0.027253785855159553,0.0,0.0,-0.0002617994307114132,0.0,0.0,0.0,0.0034906585560035243,1,1,1,2.861459,0,-0.20000000298023224,0.20000000298023224,-0.10000000149011612,-0.7602653503417969,-1.544441819190979,1.0527825355529785,2,0,0,-1.0,0,0.0,0.0,0.0,0.0,0.0,0.0,3,0,0,13182.920907,0,0.0,0.0,0.0,0.008726646192371845,0.034208450466394424,2.545562505722046,4,1,1,2.858707,0,0.30000001192092896,-0.5,0.0,0.010646509006619453,0.0354301817715168,2.5467844009399414
127,2.583782382,0.020003202,662,2.265948,2.5448644161224365,145.8099904768401,0.034208450466394424,1.9599998354067332,-0.034208450466394424,-1.9599998354067332,-1.544441819190979,-88.48999794315009,-0.0013962634224014094,0.0,0.0,-0.0002617994307114132,-0.09598387385703962,0.0,0.0,0.0,0.0945876104346382,0.0,0.0,-0.0002617994307114132,0.0,0.0,0.0,0.0034906585560035243,1,1,1,2.888242,0,-0.20000000298023224,0.20000000298023224,-0.20000000298023224,-0.7635815143585205,-1.544441819190979,1.0513862371444702,2,0,0,-1.0,0,0.0,0.0,0.0,0.0,0.0,0.0,3,0,0,13202.95214,0,0.0,0.0,0.0,0.008726646192371845,0.034208450466394424,2.545562505722046,4,1,1,2.885618,0,0.4000000059604645,-0.5,0.0,0.010297441855072975,0.03508111834526062,2.5448644161224365
128,2.603866766,0.019986529,663,1.785411,2.54207181930542,145.64998646534337,0.034208450466394424,1.9599998354067332,-0.034208450466394424,-1.9599998354067332,-1.544441819190979,-88.48999794315009,-0.0013962634224014094,0.0,0.0,-0.0002617994307114132,-0.1397239519186449,0.0,0.0,0.0,0.1383276884962435,0.0,0.0,-0.0002617994307114132,0.0,0.0,0.0,0.0034906585560035243,1,1,1,2.878739,0,-0.20000000298023224,0.20000000298023224,-0.20000000298023224,-0.7682939171791077,-1.544441819190979,1.0618582963943481,2,0,0,-1.0,0,0.0,0.0,0.0,0.0,0.0,0.0,3,0,0,13222.945326,0,0.0,0.0,0.0,0.008726646192371845,0.034208450466394424,2.545562505722046,4,1,1,2.876115,0,0.4000000059604645,-0.4000000059604645,0.0,0.009424776770174503,0.0345575176179409,2.54207181930542
129,2.624309705,0.020474042,664,2.906289,2.54207181930542,145.64998646534337,0.034208450466394424,1.9599998354067332,-0.034208450466394424,-1.9599998354067332,-1.544441819190979,-88.48999794315009,-0.0013962634224014094,0.0,0.0,-0.0002617994307114132,0.0,0.0,0.0,0.0,-0.0013962634224014094,0.0,0.0,-0.0002617994307114132,0.0,0.0,0.0,0.0034906585560035243,1,1,1,23.358541,0,-0.20000000298023224,0.20000000298023224,-0.20000000298023224,-0.7682939171791077,-1.544441819190979,1.0618582963943481,2,0,0,-1.0,0,0.0,0.0,0.0,0.0,0.0,0.0,3,0,0,13243.425128,0,0.0,0.0,0.0,0.008726646192371845,0.034208450466394424,2.545562505722046,4,1,1,23.355917,0,0.4000000059604645,-0.4000000059604645,0.0,0.009424776770174503,0.0345575176179409,2.54207181930542
130,2.644396073,0.020065761,665,2.619606,2.534043550491333,145.19000054549971,0.034208450466394424,1.9599998354067332,-0.034208450466394424,-1.9599998354067332,-1.5446163415908813,-88.49999734009499,0.0003490658556003527,0.0,0.0,-0.0002617994307114132,-0.4000978988081695,0.0,0.0,-0.008697522107551453,0.40044696466376983,0.0,0.0,0.00843572267684004,0.0017453292780017621,0.0,0.0,0.0034906585560035243,1,1,1,3.39921,0,-0.20000000298023224,0.20000000298023224,-0.30000001192092896,-0.7738789916038513,-1.5446163415908813,1.0649999380111694,2,0,0,-1.0,0,0.0,0.0,0.0,0.0,0.0,0.0,3,0,0,13263.479432,0,0.0,0.0,0.0,0.008726646192371845,0.034208450466394424,2.545562505722046,4,1,1,3.395146,0,0.5,-0.5,0.10000000149011612,0.009424776770174503,0.03490658476948738,2.534043550491333
131,2.664483561,0.02021731,666,2.532952,2.527585744857788,144.81999553778178,0.034208450466394424,1.9599998354067332,-0.034208450466394424,-1.9599998354067332,-1.544267177581787,-88.47999171601602,0.0003490658556003527,0.0,0.0,-0.0002617994307114132,-0.31941962771233773,0.0,0.0,0.01727054732277629,0.3197686935679381,0.0,0.0,-0.017532346753487704,0.0017453292780017621,0.0,0.0,0.0034906585560035243,1,1,1,3.649414,0,-0.10000000149011612,0.20000000298023224,-0.30000001192092896,-0.7859217524528503,-1.544267177581787,1.0862928628921509,2,0,0,-1.0,0,0.0,0.0,0.0,0.0,0.0,0.0,3,0,0,13283.715142,0,0.0,0.0,0.0,0.008726646192371845,0.034208450466394424,2.545562505722046,4,1,1,3.646214,0,0.5,-0.5,0.10000000149011612,0.009599311277270317,0.03473205119371414,2.527585744857788
132,2.684573673,0.020017537,667,3.237804,2.527585744857788,144.81999553778178,0.034208450466394424,1.9599998354067332,-0.034208450466394424,-1.9599998354067332,-1.544267177581787,-88.47999171601602,0.0003490658556003527,0.0,0.0,-0.0002617994307114132,0.0,0.0,0.0,0.0,0.0003490658556003527,0.0,0.0,-0.0002617994307114132,0.0017453292780017621,0.0,0.0,0.0034906585560035243,1,1,1,23.65412,0,-0.10000000149011612,0.20000000298023224,-0.30000001192092896,-0.7859217524528503,-1.544267177581787,1.0862928628921509,2,0,0,-1.0,0,0.0,0.0,0.0,0.0,0.0,0.0,3,0,0,13303.719848,0,0.0,0.0,0.0,0.008726646192371845,0.034208450466394424,2.545562505722046,4,1,1,23.65092,0,0.5,-0.5,0.10000000149011612,0.009599311277270317,0.03473205119371414,2.527585744857788
133,2.704649962,0.020053473,668,2.858834,2.561095952987671,146.73998903422904,0.034208450466394424,1.9599998354067332,-0.034208450466394424,-1.9599998354067332,-1.5446163415908813,-88.49999734009499,0.0003490658556003527,0.0,0.0,-0.0002617994307114132,1.6710426233841298,0.0,0.0,-0.01741164780256459,-1.6706935575285293,0.0,0.0,0.017149848371853176,0.0017453292780017621,0.0,0.0,0.0034906585560035243,1,1,1,3.732324,0,-0.10000000149011612,0.20000000298023224,-0.30000001192092896,-0.7962191700935364,-1.5446163415908813,1.0833258628845215,2,0,0,-1.0,0,0.0,0.0,0.0,0.0,0.0,0.0,3,0,0,13323.774312,0,0.0,0.0,0.0,0.008726646192371845,0.034208450466394424,2.545562505722046,4,1,1,3.7281,0,0.4000000059604645,-0.6000000238418579,0.10000000149011612,0.01448623277246952,0.03787364065647125,2.561095952987671
134,2.724736618,0.020074497,669,2.528248,2.551496744155884,146.18999488150294,0.034208450466394424,1.9599998354067332,-0.034208450466394424,-1.9599998354067332,-1.544441819190979,-88.48999794315009,0.0003490658556003527,0.0,0.0,-0.0002617994307114132,-0.47817929544073307,0.0,0.0,0.008693737128374561,0.4785283612963334,0.0,0.0,-0.008955536559085974,0.0017453292780017621,0.0,0.0,0.0034906585560035243,1,1,1,3.773316,0,-0.10000000149011612,0.20000000298023224,-0.20000000298023224,-0.7918558716773987,-1.544441819190979,1.0833258628845215,2,0,0,-1.0,0,0.0,0.0,0.0,0.0,0.0,0.0,3,0,0,13343.838921,0,0.0,0.0,0.0,0.008726646192371845,0.034208450466394424,2.545562505722046,4,1,1,3.768708,0,0.4000000059604645,-0.5,0.10000000149011612,0.009250244125723839,0.034033920615911484,2.551496744155884
135,2.744811402,0.020050496,670,3.181933,2.551496744155884,146.18999488150294,0.034208450466394424,1.9599998354067332,-0.034208450466394424,-1.9599998354067332,-1.544441819190979,-88.48999794315009,0.0003490658556003527,0.0,0.0,-0.0002617994307114132,0.0,0.0,0.0,0.0,0.0003490658556003527,0.0,0.0,-0.0002617994307114132,0.0017453292780017621,0.0,0.0,0.0034906585560035243,1,1,1,3.823939,0,-0.10000000149011612,0.20000000298023224,-0.20000000298023224,-0.7794640064239502,-1.544441819190979,1.0833258628845215,2,0,0,-1.0,0,0.0,0.0,0.0,0.0,0.0,0.0,3,0,0,13363.890858,0,0.0,0.0,0.0,0.008726646192371845,0.034208450466394424,2.545562505722046,4,1,1,23.820645,0,0.4000000059604645,-0.5,0.10000000149011612,0.009250244125723839,0.034033920615911484,2.551496744155884
136,2.764896427,0.020153824,671,2.923218,2.5441665649414062,145.77000654943885,0.034208450466394424,1.9599998354067332,-0.034208450466394424,-1.9599998354067332,-1.544267177581787,-88.47999171601602,0.002094395133602115,0.0,0.0,-0.0002617994307114132,-0.36371158220283845,0.0,0.0,0.008665432882211065,0.36580597733644055,0.0,0.0,-0.008927232312922478,0.0034906585560035243,0.0,0.0,0.0034906585560035243,1,1,1,3.994721,0,-0.20000000298023224,0.20000000298023224,-0.20000000298023224,-0.7778932452201843,-1.544267177581787,1.0723302364349365,2,0,0,-1.0,0,0.0,0.0,0.0,0.0,0.0,0.0,3,0,0,13384.045865,0,0.0,0.0,0.0,0.008726646192371845,0.034208450466394424,2.545562505722046,4,1,1,3.990497,0,0.4000000059604645,-0.5,0.20000000298023224,0.01012290921062231,0.0354301817715168,2.5441665649414062
137,2.784972939,0.020021057,672,3.560072,2.5441665649414062,145.77000654943885,0.034208450466394424,1.9599998354067332,-0.034208450466394424,-1.9599998354067332,-1.544441819190979,-88.48999794315009,0.002094395133602115,0.0,0.0,-0.0002617994307114132,0.0,0.0,0.0,-0.008722896557953686,0.002094395133602115,0.0,0.0,0.008461097127242273,0.0034906585560035243,0.0,0.0,0.0034906585560035243,1,1,1,4.003776,0,-0.20000000298023224,0.20000000298023224,-0.20000000298023224,-0.7693411111831665,-1.544441819190979,1.0660470724105835,2,0,0,-1.0,0,0.0,0.0,0.0,0.0,0.0,0.0,3,0,0,13404.06673,0,0.0,0.0,0.0,0.008726646192371845,0.034208450466394424,2.545562505722046,4,1,1,24.011362,0,0.4000000059604645,-0.5,0.20000000298023224,0.01012290921062231,0.0354301817715168,2.5441665649414062
138,2.805060043,0.02008624,673,3.245676,2.545038938522339,145.819989873785,0.034208450466394424,1.9599998354067332,-0.034208450466394424,-1.9599998354067332,-1.544267177581787,-88.47999171601602,0.0003490658556003527,0.0,0.0,-0.0002617994307114132,0.04343140283759515,0.0,0.0,0.008694589390144423,-0.0430823369819948,0.0,0.0,-0.008956388820855836,0.0017453292780017621,0.0,0.0,0.0034906585560035243,1,1,1,4.094942,0,-0.10000000149011612,0.20000000298023224,-0.20000000298023224,-0.775973379611969,-1.544267177581787,1.0651744604110718,2,0,0,-1.0,0,0.0,0.0,0.0,0.0,0.0,0.0,3,0,0,13424.150762,0,0.0,0.0,0.0,0.008726646192371845,0.034208450466394424,2.545562505722046,4,1,1,4.092542,0,0.5,-0.6000000238418579,0.10000000149011612,0.011170106939971447,0.03612831234931946,2.545038938522339
139,2.825135179,0.020063841,674,3.021776,2.541024684906006,145.589990083674,0.034208450466394424,1.9599998354067332,-0.034208450466394424,-1.9599998354067332,-1.544267177581787,-88.47999171601602,0.0003490658556003527,0.0,0.0,0.0014835299773275118,-0.20007403449484115,0.0,0.0,0.0,0.2004231003504415,0.0,0.0,0.0014835299773275118,0.0017453292780017621,0.0,0.0,0.005235987964042448,1,1,1,4.159582,0,-0.10000000149011612,0.30000001192092896,-0.20000000298023224,-0.7731808423995972,-1.544267177581787,1.059065818786621,2,0,0,-1.0,0,0.0,0.0,0.0,0.0,0.0,0.0,3,0,0,13444.218091,0,0.0,0.0,0.0,0.008726646192371845,0.034208450466394424,2.545562505722046,4,1,1,4.15587,0,0.4000000059604645,-0.5,0.10000000149011612,0.009773843921720982,0.03473205119371414,2.541024684906006
140,2.84522078,0.020080736,675,3.859363,2.541024684906006,145.589990083674,0.034208450466394424,1.9599998354067332,-0.034208450466394424,-1.9599998354067332,-1.544267177581787,-88.47999171601602,0.0003490658556003527,0.0,0.0,0.0014835299773275118,0.0,0.0,0.0,0.0,0.0003490658556003527,0.0,0.0,0.0014835299773275118,0.0017453292780017621,0.0,0.0,0.005235987964042448,1,1,1,24.239742,0,-0.10000000149011612,0.30000001192092896,-0.20000000298023224,-0.7731808423995972,-1.544267177581787,1.059065818786621,2,0,0,-1.0,0,0.0,0.0,0.0,0.0,0.0,0.0,3,0,0,13464.298251,0,0.0,0.0,0.0,0.008726646192371845,0.034208450466394424,2.545562505722046,4,1,1,24.23603,0,0.4000000059604645,-0.5,0.10000000149011612,0.009773843921720982,0.03473205119371414,2.541024684906006
141,2.865300332,0.020492698,676,3.848963,2.5603978633880615,146.69999144644945,0.034208450466394424,1.9599998354067332,-0.034208450466394424,-1.9599998354067332,-1.544441819190979,-88.48999794315009,0.0003490658556003527,0.0,0.0,0.0014835299773275118,0.9453698328085284,0.0,0.0,-0.008522138431547399,-0.945020766952928,0.0,0.0,0.01000566840887491,0.0017453292780017621,0.0,0.0,0.005235987964042448,1,1,1,4.750421,0,-0.20000000298023224,0.30000001192092896,-0.20000000298023224,-0.7660250067710876,-1.544441819190979,1.0540043115615845,2,0,0,-1.0,0,0.0,0.0,0.0,0.0,0.0,0.0,3,0,0,13484.803237,0,0.0,0.0,0.0,0.008726646192371845,0.034208450466394424,2.545562505722046,4,1,1,4.746581,0,0.4000000059604645,-0.4000000059604645,0.10000000149011612,0.011344639584422112,0.03595378249883652,2.5603978633880615
142,2.885386028,0.019709286,677,3.118127,2.560048818588257,146.67999265255966,0.034208450466394424,1.9599998354067332,-0.034208450466394424,-1.9599998354067332,-1.544441819190979,-88.48999794315009,0.0003490658556003527,0.0,0.0,-0.0002617994307114132,-0.017709662328949282,0.0,0.0,0.0,0.018058728184549636,0.0,0.0,-0.0002617994307114132,0.0017453292780017621,0.0,0.0,0.0034906585560035243,1,1,1,4.439577,0,-0.20000000298023224,0.20000000298023224,-0.20000000298023224,-0.7646287083625793,-1.544441819190979,1.0513862371444702,2,0,0,-1.0,0,0.0,0.0,0.0,0.0,0.0,0.0,3,0,0,13504.504715,0,0.0,0.0,0.0,0.008726646192371845,0.034208450466394424,2.545562505722046,4,1,1,4.436601,0,0.4000000059604645,-0.5,0.10000000149011612,0.010646509006619453,0.03525565192103386,2.560048818588257
143,2.905461229,0.020009089,678,3.870978,2.562143325805664,146.79999907627678,0.034208450466394424,1.9599998354067332,-0.034208450466394424,-1.9599998354067332,-1.544441819190979,-88.48999794315009,0.0003490658556003527,0.0,0.0,-0.0002617994307114132,0.10467779004867371,0.0,0.0,0.0,-0.10432872419307336,0.0,0.0,-0.0002617994307114132,0.0017453292780017621,0.0,0.0,0.0034906585560035243,1,1,1,4.441402,0,-0.10000000149011612,0.20000000298023224,-0.10000000149011612,-0.7663740515708923,-1.544441819190979,1.0550514459609985,2,0,0,-1.0,0,0.0,0.0,0.0,0.0,0.0,0.0,3,0,0,13524.507309,0,0.0,0.0,0.0,0.008726646192371845,0.034208450466394424,2.545562505722046,4,1,1,4.438714,0,0.4000000059604645,-0.5,0.10000000149011612,0.010646509006619453,0.03525565192103386,2.562143325805664
144,2.925545005,0.020096864,679,3.58967,2.562143325805664,146.79999907627678,0.034208450466394424,1.9599998354067332,-0.034208450466394424,-1.9599998354067332,-1.544441819190979,-88.48999794315009,0.0003490658556003527,0.0,0.0,-0.0002617994307114132,0.0,0.0,0.0,0.0,0.0003490658556003527,0.0,0.0,-0.0002617994307114132,0.0017453292780017621,0.0,0.0,0.0034906585560035243,1,1,1,24.577305,0,-0.10000000149011612,0.20000000298023224,-0.10000000149011612,-0.7663740515708923,-1.544441819190979,1.0550514459609985,2,0,0,-1.0,0,0.0,0.0,0.0,0.0,0.0,0.0,3,0,0,13544.643212,0,0.0,0.0,0.0,0.008726646192371845,0.034208450466394424,2.545562505722046,4,1,1,24.574617,0,0.4000000059604645,-0.5,0.10000000149011612,0.010646509006619453,0.03525565192103386,2.562143325805664
145,2.945620653,0.020047009,680,3.259116,2.545562505722046,145.8499880646197,0.034208450466394424,1.9599998354067332,-0.034208450466394424,-1.9599998354067332,-1.544267177581787,-88.47999171601602,0.0003490658556003527,0.0,0.0,-0.0002617994307114132,-0.8270969541450379,0.0,0.0,0.008711604269339856,0.8274460200006383,0.0,0.0,-0.008973403700051268,0.0017453292780017621,0.0,0.0,0.0034906585560035243,1,1,1,4.624182,0,0.0,0.20000000298023224,-0.20000000298023224,-0.7744025588035583,-1.544267177581787,1.0709339380264282,2,0,0,-1.0,0,0.0,0.0,0.0,0.0,0.0,0.0,3,0,0,13564.690989,0,0.0,0.0,0.0,0.008726646192371845,0.034208450466394424,2.545562505722046,4,1,1,4.621175,0,0.4000000059604645,-0.5,0.10000000149011612,0.010646509006619453,0.03560471534729004,2.545562505722046
146,2.965706542,0.020599896,681,4.516824,2.5523693561553955,146.23999186622743,0.034208450466394424,1.9599998354067332,-0.034208450466394424,-1.9599998354067332,-1.5440927743911743,-88.46999914926029,0.0003490658556003527,0.0,0.0,-0.0002617994307114132,0.33043130088373307,0.0,0.0,0.00846621704365852,-0.3300822350281327,0.0,0.0,-0.008728016474369932,0.0017453292780017621,0.0,0.0,0.0034906585560035243,1,1,1,5.202189,0,-0.10000000149011612,0.20000000298023224,-0.20000000298023224,-0.7794640064239502,-1.5440927743911743,1.0674433708190918,2,0,0,-1.0,0,0.0,0.0,0.0,0.0,0.0,0.0,3,0,0,13585.261541,0,0.0,0.0,0.0,0.008726646192371845,0.034208450466394424,2.545562505722046,4,1,1,5.199821,0,0.4000000059604645,-0.5,0.10000000149011612,0.011170106939971447,0.03577924892306328,2.5523693561553955
147,2.985781838,0.019648327,682,3.844738,2.562666893005371,146.82999726711148,0.034208450466394424,1.9599998354067332,-0.034208450466394424,-1.9599998354067332,-1.544267177581787,-88.47999171601602,-0.0013962634224014094,0.0,0.0,-0.0002617994307114132,0.5240922980351246,0.0,0.0,-0.008876236160605072,-0.525488561457526,0.0,0.0,0.008614436729893659,0.0,0.0,0.0,0.0034906585560035243,1,1,1,4.836659,0,-0.20000000298023224,0.20000000298023224,-0.30000001192092896,-0.7881906628608704,-1.544267177581787,1.0723302364349365,2,0,0,-1.0,0,0.0,0.0,0.0,0.0,0.0,0.0,3,0,0,13604.905485,0,0.0,0.0,0.0,0.008726646192371845,0.034208450466394424,2.545562505722046,4,1,1,4.833651,0,0.4000000059604645,-0.5,0.0,0.011519172228872776,0.03577924892306328,2.562666893005371
148,3.005865454,0.020030242,683,4.514809,2.562666893005371,146.82999726711148,0.034208450466394424,1.9599998354067332,-0.034208450466394424,-1.9599998354067332,-1.544267177581787,-88.47999171601602,-0.0013962634224014094,0.0,0.0,-0.0002617994307114132,0.0,0.0,0.0,0.0,-0.0013962634224014094,0.0,0.0,-0.0002617994307114132,0.0,0.0,0.0,0.0034906585560035243,1,1,1,24.86466,0,-0.20000000298023224,0.20000000298023224,-0.30000001192092896,-0.7881906628608704,-1.544267177581787,1.0723302364349365,2,0,0,-1.0,0,0.0,0.0,0.0,0.0,0.0,0.0,3,0,0,13624.933486,0,0.0,0.0,0.0,0.008726646192371845,0.034208450466394424,2.545562505722046,4,1,1,24.861652,0,0.4000000059604645,-0.5,0.0,0.011519172228872776,0.03577924892306328,2.562666893005371
149,3.025941711,0.020075936,684,4.182749,2.5499258041381836,146.0999866486205,0.034208450466394424,1.9599998354067332,-0.034208450466394424,-1.9599998354067332,-1.5440927743911743,-88.46999914926029,0.0003490658556003527,0.0,0.0,-0.0002617994307114132,-0.6346448238920218,0.0,0.0,0.008687176060572866,0.6349938897476222,0.0,0.0,-0.008948975491284279,0.0017453292780017621,0.0,0.0,0.0034906585560035243,1,1,1,4.936529,0,-0.20000000298023224,0.20000000298023224,-0.20000000298023224,-0.7784168124198914,-1.5440927743911743,1.0786134004592896,2,0,0,-1.0,0,0.0,0.0,0.0,0.0,0.0,0.0,3,0,0,13645.012206,0,0.0,0.0,0.0,0.008726646192371845,0.034208450466394424,2.545562505722046,4,1,1,24.944019,0,0.4000000059604645,-0.5,0.10000000149011612,0.009424776770174503,0.034382984042167664,2.5499258041381836
150,3.046020047,0.020107968,685,3.996417,2.542595624923706,145.67999831655644,0.034208450466394424,1.9599998354067332,-0.034208450466394424,-1.9599998354067332,-1.5440927743911743,-88.46999914926029,-0.0013962634224014094,0.0,0.0,0.0014835299773275118,-0.3645410224681847,0.0,0.0,0.0,0.3631447590457833,0.0,0.0,0.0014835299773275118,0.0,0.0,0.0,0.005235987964042448,1,1,1,5.048175,0,-0.10000000149011612,0.30000001192092896,-0.20000000298023224,-0.7757988572120667,-1.5440927743911743,1.0597639083862305,2,0,0,-1.0,0,0.0,0.0,0.0,0.0,0.0,0.0,3,0,0,13665.114798,0,0.0,0.0,0.0,0.008726646192371845,0.034208450466394424,2.545562505722046,4,1,1,5.045008,0,0.4000000059604645,-0.6000000238418579,0.0,0.010297441855072975,0.03508111834526062,2.542595624923706
151,3.066097743,0.020122815,686,4.77138,2.542595624923706,145.67999831655644,0.034208450466394424,1.9599998354067332,-0.034208450466394424,-1.9599998354067332,-1.5440927743911743,-88.46999914926029,-0.0013962634224014094,0.0,0.0,0.0014835299773275118,0.0,0.0,0.0,0.0,-0.0013962634224014094,0.0,0.0,0.0014835299773275118,0.0,0.0,0.0,0.005235987964042448,1,1,1,25.175695,0,-0.10000000149011612,0.30000001192092896,-0.20000000298023224,-0.7757988572120667,-1.5440927743911743,1.0597639083862305,2,0,0,-1.0,0,0.0,0.0,0.0,0.0,0.0,0.0,3,0,0,13685.242318,0,0.0,0.0,0.0,0.008726646192371845,0.034208450466394424,2.545562505722046,4,1,1,25.172528,0,0.4000000059604645,-0.6000000238418579,0.0,0.010297441855072975,0.03508111834526062,2.542595624923706
152,3.086180624,0.020067361,687,4.51068,2.5579545497894287,146.55999988922088,0.034208450466394424,1.9599998354067332,-0.034208450466394424,-1.9599998354067332,-1.5440927743911743,-88.46999914926029,-0.0013962634224014094,0.0,0.0,0.0014835299773275118,0.7653684440979887,0.0,0.0,0.0,-0.76676470752039,0.0,0.0,0.0014835299773275118,0.0,0.0,0.0,0.005235987964042448,1,1,1,5.231244,0,-0.20000000298023224,0.30000001192092896,-0.10000000149011612,-0.764454185962677,-1.5440927743911743,1.0510371923446655,2,0,0,-1.0,0,0.0,0.0,0.0,0.0,0.0,0.0,3,0,0,13705.300174,0,0.0,0.0,0.0,0.008726646192371845,0.034208450466394424,2.545562505722046,4,1,1,5.228332,0,0.30000001192092896,-0.6000000238418579,0.0,0.01012290921062231,0.036651913076639175,2.5579545497894287
